stair.thisTrialN,stair.stepSize,stair.intensity,thisRow.t,notes,trial.started,fixation.started,grating.started,key_resp.started,fixation.stopped,grating.stopped,trial.stopped,corrAns,tilt,key_resp.corr,stair.response,key_resp.rt,participant,session,date,expName,psychopyVersion,frameRate,expStart,
0,2,10.0,0.09174639999400824,,0.060207200003787875,0.09174639999400824,0.6091267000010703,0.6091267000010703,0.6174601000093389,0.915195900015533,46.8898571000027,left,-10.0,0,0,46.118169299996225,990435,001,2024-09-05_15h31.41.630,adaptive_staircase,2024.1.5,None,2024-09-05 15h31.54.747543 +0530,
1,1,12.0,46.89920919999713,,46.88996760000009,46.89920919999713,47.40106920001563,47.40106920001563,47.40106920001563,47.70161089999601,50.48485820001224,left,-12.0,1,1,3.074288300005719,990435,001,2024-09-05_15h31.41.630,adaptive_staircase,2024.1.5,None,2024-09-05 15h31.54.747543 +0530,
2,1,11.0,50.499311099993065,,50.48500210000202,50.499311099993065,50.99921540002106,50.99921540002106,50.99921540002106,51.29893640000955,51.43425500000012,right,11.0,1,1,0.42392479997943155,990435,001,2024-09-05_15h31.41.630,adaptive_staircase,2024.1.5,None,2024-09-05 15h31.54.747543 +0530,
3,1,11.0,51.44934550000471,,51.434397500008345,51.44934550000471,51.94891040000948,51.94891040000948,51.94891040000948,52.24871869999333,55.23286420002114,left,-11.0,1,1,3.28034120000666,990435,001,2024-09-05_15h31.41.630,adaptive_staircase,2024.1.5,None,2024-09-05 15h31.54.747543 +0530,
4,1,11.0,55.24807500001043,,55.23299680001219,55.24807500001043,55.74803250000696,55.74803250000696,55.74803250000696,56.0472975000157,56.515317000012146,left,-11.0,1,1,0.7613151999830734,990435,001,2024-09-05_15h31.41.630,adaptive_staircase,2024.1.5,None,2024-09-05 15h31.54.747543 +0530,
5,1,10.0,56.53097650001291,,56.51546039999812,56.53097650001291,57.030468300014036,57.030468300014036,57.030468300014036,57.33320230001118,57.91517330001807,left,-10.0,1,1,0.8773930000024848,990435,001,2024-09-05_15h31.41.630,adaptive_staircase,2024.1.5,None,2024-09-05 15h31.54.747543 +0530,
6,1,10.0,57.93040199999814,,57.915299700020114,57.93040199999814,58.42971510000643,58.42971510000643,58.446448400005465,58.7300623000192,59.24865350002074,left,-10.0,0,0,0.8166095000051428,990435,001,2024-09-05_15h31.41.630,adaptive_staircase,2024.1.5,None,2024-09-05 15h31.54.747543 +0530,
7,1,11.0,59.263299200014444,,59.24879480001982,59.263299200014444,59.76314600001206,59.76314600001206,59.76314600001206,60.062534500000766,60.18154010002036,right,11.0,1,1,0.40595139999641106,990435,001,2024-09-05_15h31.41.630,adaptive_staircase,2024.1.5,None,2024-09-05 15h31.54.747543 +0530,
8,1,11.0,60.196352099999785,,60.18167360001826,60.196352099999785,60.69589580001775,60.69589580001775,60.69589580001775,60.99591120000696,65.69656159999431,left,-11.0,1,1,4.9977158999827225,990435,001,2024-09-05_15h31.41.630,adaptive_staircase,2024.1.5,None,2024-09-05 15h31.54.747543 +0530,
9,0.5,11.0,65.71179620001931,,65.69670150001184,65.71179620001931,66.21088210001471,66.21088210001471,66.21088210001471,66.51060860001598,68.24496949999593,right,11.0,1,1,2.030373999994481,990435,001,2024-09-05_15h31.41.630,adaptive_staircase,2024.1.5,None,2024-09-05 15h31.54.747543 +0530,
10,0.5,10.5,68.25987140001962,,68.24510220001685,68.25987140001962,68.75982580002164,68.75982580002164,68.75982580002164,69.05999670000165,69.66184440001962,right,10.5,1,1,0.8964682999940123,990435,001,2024-09-05_15h31.41.630,adaptive_staircase,2024.1.5,None,2024-09-05 15h31.54.747543 +0530,
11,0.5,10.5,69.67636060001678,,69.66198040000745,69.67636060001678,70.17604170000413,70.17604170000413,70.17604170000413,70.47600530000636,70.86056329999701,right,10.5,1,1,0.6705452000023797,990435,001,2024-09-05_15h31.41.630,adaptive_staircase,2024.1.5,None,2024-09-05 15h31.54.747543 +0530,
12,0.5,10.5,70.87565530001302,,70.86069230001885,70.87565530001302,71.37545670001418,71.37545670001418,71.37545670001418,71.67552190000424,72.01053349999711,right,10.5,1,1,0.6239157999807503,990435,001,2024-09-05_15h31.41.630,adaptive_staircase,2024.1.5,None,2024-09-05 15h31.54.747543 +0530,
13,0.5,10.0,72.0253813000163,,72.01067540000076,72.0253813000163,72.52519360001315,72.52519360001315,72.52519360001315,72.82547919999342,73.20990410001832,left,-10.0,1,1,0.6779446000000462,990435,001,2024-09-05_15h31.41.630,adaptive_staircase,2024.1.5,None,2024-09-05 15h31.54.747543 +0530,
14,0.5,10.0,73.22480450000148,,73.21007970001665,73.22480450000148,73.72486310001113,73.72486310001113,73.72486310001113,74.02457040001173,74.47576170001412,left,-10.0,1,1,0.7344258000084665,990435,001,2024-09-05_15h31.41.630,adaptive_staircase,2024.1.5,None,2024-09-05 15h31.54.747543 +0530,
15,0.5,10.0,74.49146920000203,,74.47589440000593,74.49146920000203,74.99119110000902,74.99119110000902,74.99119110000902,75.29090580000775,75.55905209999764,right,10.0,1,1,0.5618419999955222,990435,001,2024-09-05_15h31.41.630,adaptive_staircase,2024.1.5,None,2024-09-05 15h31.54.747543 +0530,
16,0.5,9.5,75.57461090001743,,75.55920190000325,75.57461090001743,76.07415230001789,76.07415230001789,76.07415230001789,76.37414500000887,76.59248230000958,left,-9.5,1,1,0.5125708999985363,990435,001,2024-09-05_15h31.41.630,adaptive_staircase,2024.1.5,None,2024-09-05 15h31.54.747543 +0530,
17,0.5,9.5,76.60762850000174,,76.59264430002077,76.60762850000174,77.10702330002096,77.10702330002096,77.10702330002096,77.40688860000228,77.72512250000727,right,9.5,1,1,0.6072838999971282,990435,001,2024-09-05_15h31.41.630,adaptive_staircase,2024.1.5,None,2024-09-05 15h31.54.747543 +0530,
18,0.5,9.5,77.74021069999435,,77.72529689999647,77.74021069999435,78.24018409999553,78.24018409999553,78.24018409999553,78.54041340001277,78.67472140002064,left,-9.5,1,1,0.4232942999806255,990435,001,2024-09-05_15h31.41.630,adaptive_staircase,2024.1.5,None,2024-09-05 15h31.54.747543 +0530,
19,0.5,9.0,78.6894914000004,,78.674863799999,78.6894914000004,79.18980520000332,79.18980520000332,79.18980520000332,79.48935390001861,79.70765510000638,right,9.0,1,1,0.5073131000099238,990435,001,2024-09-05_15h31.41.630,adaptive_staircase,2024.1.5,None,2024-09-05 15h31.54.747543 +0530,
20,0.5,9.0,79.72278140002163,,79.70779400001629,79.72278140002163,80.22257690000697,80.22257690000697,80.22257690000697,80.52255900000455,80.65723260000232,right,9.0,0,0,0.4220342000189703,990435,001,2024-09-05_15h31.41.630,adaptive_staircase,2024.1.5,None,2024-09-05 15h31.54.747543 +0530,
21,0.5,9.5,80.67303269999684,,80.65737250001985,80.67303269999684,81.17271879999316,81.17271879999316,81.17271879999316,81.4726120000123,82.45701060001738,right,9.5,1,1,1.2699093999981415,990435,001,2024-09-05_15h31.41.630,adaptive_staircase,2024.1.5,None,2024-09-05 15h31.54.747543 +0530,
22,0.5,9.5,82.47180510000908,,82.45714899999439,82.47180510000908,82.97195090001333,82.97195090001333,82.97195090001333,83.27161570001044,83.78987700000289,right,9.5,1,1,0.802731900010258,990435,001,2024-09-05_15h31.41.630,adaptive_staircase,2024.1.5,None,2024-09-05 15h31.54.747543 +0530,
23,0.5,9.5,83.80475410001236,,83.79001450000214,83.80475410001236,84.30468349999865,84.30468349999865,84.30468349999865,84.60500520002097,84.93935090000741,right,9.5,1,1,0.6241215999762062,990435,001,2024-09-05_15h31.41.630,adaptive_staircase,2024.1.5,None,2024-09-05 15h31.54.747543 +0530,
24,0.5,9.0,84.95467209999333,,84.93949250000878,84.95467209999333,85.45396830001846,85.45396830001846,85.45396830001846,85.75442390001263,85.98868209999637,right,9.0,1,1,0.5271837000036612,990435,001,2024-09-05_15h31.41.630,adaptive_staircase,2024.1.5,None,2024-09-05 15h31.54.747543 +0530,
25,0.5,9.0,86.00410610000836,,85.9888189000194,86.00410610000836,86.50392370001646,86.50392370001646,86.50392370001646,86.80343910001102,87.15529290001723,right,9.0,1,1,0.6411383000086062,990435,001,2024-09-05_15h31.41.630,adaptive_staircase,2024.1.5,None,2024-09-05 15h31.54.747543 +0530,
26,0.5,9.0,87.17033750002156,,87.15543430001708,87.17033750002156,87.6702268999943,87.6702268999943,87.6702268999943,87.96994450001512,88.38774229999399,right,9.0,1,1,0.7011931000160985,990435,001,2024-09-05_15h31.41.630,adaptive_staircase,2024.1.5,None,2024-09-05 15h31.54.747543 +0530,
27,0.5,8.5,88.4031740000064,,88.3878745000111,88.4031740000064,88.90311109999311,88.90311109999311,88.90311109999311,89.20283660001587,90.00421710000955,left,-8.5,1,1,1.0858371000213083,990435,001,2024-09-05_15h31.41.630,adaptive_staircase,2024.1.5,None,2024-09-05 15h31.54.747543 +0530,
28,0.5,8.5,90.01944910001475,,90.00435550001566,90.01944910001475,90.5194420000189,90.5194420000189,90.5194420000189,90.81890360001125,91.25365060000331,left,-8.5,1,1,0.722851799975615,990435,001,2024-09-05_15h31.41.630,adaptive_staircase,2024.1.5,None,2024-09-05 15h31.54.747543 +0530,
29,0.5,8.5,91.26957649999531,,91.25380330000189,91.26957649999531,91.76952590001747,91.76952590001747,91.76952590001747,92.06860300002154,92.63704750000034,right,8.5,1,1,0.8652771000051871,990435,001,2024-09-05_15h31.41.630,adaptive_staircase,2024.1.5,None,2024-09-05 15h31.54.747543 +0530,
30,0.5,8.0,92.65173440001672,,92.6371798000182,92.65173440001672,93.1505244,93.1505244,93.1505244,93.45163570001023,93.86925030002021,right,8.0,1,1,0.7078766999766231,990435,001,2024-09-05_15h31.41.630,adaptive_staircase,2024.1.5,None,2024-09-05 15h31.54.747543 +0530,
31,0.5,8.0,93.88473620000877,,93.86938700001338,93.88473620000877,94.38516440000967,94.38516440000967,94.38516440000967,94.68400040001143,94.9175358999928,left,-8.0,1,1,0.5267834000114817,990435,001,2024-09-05_15h31.41.630,adaptive_staircase,2024.1.5,None,2024-09-05 15h31.54.747543 +0530,
32,0.5,8.0,94.93366120001883,,94.91761830000905,94.93366120001883,95.41714570001932,95.41714570001932,95.434880899993,95.71717310001259,96.06706530001247,right,8.0,1,1,0.6425044999923557,990435,001,2024-09-05_15h31.41.630,adaptive_staircase,2024.1.5,None,2024-09-05 15h31.54.747543 +0530,
33,0.5,7.5,96.08275380000123,,96.06715479999548,96.08275380000123,96.56664880001335,96.56664880001335,96.58343090000562,96.86837380001089,98.467799200007,right,7.5,1,1,1.8985506000171881,990435,001,2024-09-05_15h31.41.630,adaptive_staircase,2024.1.5,None,2024-09-05 15h31.54.747543 +0530,
34,0.5,7.5,98.48566150001716,,98.46788270000252,98.48566150001716,98.96732100000372,98.96732100000372,98.99911649999558,99.28299989999505,99.6844553000119,right,7.5,1,1,0.7068052999966312,990435,001,2024-09-05_15h31.41.630,adaptive_staircase,2024.1.5,None,2024-09-05 15h31.54.747543 +0530,
35,0.5,7.5,99.69982609999715,,99.68458840000676,99.69982609999715,100.19873299999745,100.19873299999745,100.19873299999745,100.49963000000571,100.68458160001319,left,-7.5,1,1,0.4840298999915831,990435,001,2024-09-05_15h31.41.630,adaptive_staircase,2024.1.5,None,2024-09-05 15h31.54.747543 +0530,
36,0.5,7.0,100.69928659999277,,100.68472560000373,100.69928659999277,101.19879700001911,101.19879700001911,101.19879700001911,101.49896670001908,101.90068570000585,right,7.0,1,1,0.6913915000041015,990435,001,2024-09-05_15h31.41.630,adaptive_staircase,2024.1.5,None,2024-09-05 15h31.54.747543 +0530,
37,0.5,7.0,101.91536169999745,,101.9008201000106,101.91536169999745,102.41555740000331,102.41555740000331,102.41555740000331,102.71506720001344,103.10061280001537,right,7.0,1,1,0.6806777000019792,990435,001,2024-09-05_15h31.41.630,adaptive_staircase,2024.1.5,None,2024-09-05 15h31.54.747543 +0530,
38,0.5,7.0,103.11495139999897,,103.10075460001826,103.11495139999897,103.61474039999302,103.61474039999302,103.61474039999302,103.91463929999736,104.31588209999609,right,7.0,1,1,0.6912201999803074,990435,001,2024-09-05_15h31.41.630,adaptive_staircase,2024.1.5,None,2024-09-05 15h31.54.747543 +0530,
39,0.5,6.5,104.33097370000905,,104.31601710000541,104.33097370000905,104.83100219999324,104.83100219999324,104.83100219999324,105.1308418000117,105.64939740000409,left,-6.5,1,1,0.8133925000147428,990435,001,2024-09-05_15h31.41.630,adaptive_staircase,2024.1.5,None,2024-09-05 15h31.54.747543 +0530,
40,0.5,6.5,105.66439640001045,,105.64953840000089,105.66439640001045,106.1641973000078,106.1641973000078,106.1641973000078,106.46379290000186,106.61636569999973,right,6.5,1,1,0.43867210001917556,990435,001,2024-09-05_15h31.41.630,adaptive_staircase,2024.1.5,None,2024-09-05 15h31.54.747543 +0530,
41,0.5,6.5,106.63093820001814,,106.61649390001548,106.63093820001814,107.13066200001049,107.13066200001049,107.13066200001049,107.42970300000161,107.798884799995,left,-6.5,1,1,0.6655036000011023,990435,001,2024-09-05_15h31.41.630,adaptive_staircase,2024.1.5,None,2024-09-05 15h31.54.747543 +0530,
42,0.5,6.0,107.81363590000547,,107.79902130001574,107.81363590000547,108.31242940001539,108.31242940001539,108.31242940001539,108.61307000002125,108.65102000001934,right,6.0,1,1,0.32340579997980967,990435,001,2024-09-05_15h31.41.630,adaptive_staircase,2024.1.5,None,2024-09-05 15h31.54.747543 +0530,
43,0.5,6.0,108.66260420001345,,108.6511655000213,108.66260420001345,109.1656956000079,109.1656956000079,109.1656956000079,109.47921889999998,109.73105380000197,left,-6.0,1,1,0.551304299995536,990435,001,2024-09-05_15h31.41.630,adaptive_staircase,2024.1.5,None,2024-09-05 15h31.54.747543 +0530,
44,0.5,6.0,109.74629130001995,,109.73118960001739,109.74629130001995,110.24612029999844,110.24612029999844,110.24612029999844,110.5458282000036,110.6470391000039,left,-6.0,0,0,0.38449960001162253,990435,001,2024-09-05_15h31.41.630,adaptive_staircase,2024.1.5,None,2024-09-05 15h31.54.747543 +0530,
45,0.5,6.5,110.66215010001906,,110.6471762000001,110.66215010001906,111.16236770001706,111.16236770001706,111.16236770001706,111.4620564999932,112.13040620001266,left,-6.5,0,0,0.9570915000222158,990435,001,2024-09-05_15h31.41.630,adaptive_staircase,2024.1.5,None,2024-09-05 15h31.54.747543 +0530,
46,0.5,7.0,112.14570789999561,,112.13055250002071,112.14570789999561,112.6448355000175,112.6448355000175,112.6448355000175,112.94487030000892,113.32979670001077,right,7.0,1,1,0.6821548999869265,990435,001,2024-09-05_15h31.41.630,adaptive_staircase,2024.1.5,None,2024-09-05 15h31.54.747543 +0530,
47,0.5,7.0,113.34445190001861,,113.32993540001917,113.34445190001861,113.84444690000964,113.84444690000964,113.84444690000964,114.14425919999485,114.6621817999985,right,7.0,1,1,0.8064697999798227,990435,001,2024-09-05_15h31.41.630,adaptive_staircase,2024.1.5,None,2024-09-05 15h31.54.747543 +0530,
48,0.5,7.0,114.6775318,,114.66231070001959,114.6775318,115.17756900002132,115.17756900002132,115.17756900002132,115.47718420001911,116.0623057000048,left,-7.0,0,0,0.8697084999876097,990435,001,2024-09-05_15h31.41.630,adaptive_staircase,2024.1.5,None,2024-09-05 15h31.54.747543 +0530,
49,0.5,7.5,116.07739740001853,,116.06248340001912,116.07739740001853,116.57697180000832,116.57697180000832,116.57697180000832,116.87662600001204,118.46093090000795,left,-7.5,1,1,1.8716088999935891,990435,001,2024-09-05_15h31.41.630,adaptive_staircase,2024.1.5,None,2024-09-05 15h31.54.747543 +0530,
