Study_word,test_word,References,old_new,trials.thisRepN,trials.thisTrialN,trials.thisN,trials.thisIndex,trials_2.thisRepN,trials_2.thisTrialN,trials_2.thisN,trials_2.thisIndex,thisRow.t,notes,trial.started,text.started,slider.started,trial.stopped,slider.response,slider.rt,test.started,text_2.started,textbox.started,text_3.started,mouse.started,test.stopped,textbox.text,mouse.x,mouse.y,mouse.leftButton,mouse.midButton,mouse.rightButton,mouse.time,mouse.clicked_name,participant,session,date,expName,psychopyVersion,frameRate,expStart
phone,,,,0,0,0,2,,,,,0.1186737,,0.0291645,0.1186737,0.1186737,2.1072715,1,2.0276749,,,,,,,,,,,,,,,55110,1,2024-11-07_16h21.35.624,word_primimg,2024.1.5,None,2024-11-07 16h21.43.630087 +0530
Poster,,,,0,1,1,14,,,,,2.1329793,,2.1081563,2.1329793,2.1329793,3.5403531,1.488888889,1.3888582,,,,,,,,,,,,,,,55110,1,2024-11-07_16h21.35.624,word_primimg,2024.1.5,None,2024-11-07 16h21.43.630087 +0530
T-shirt,,,,0,2,2,7,,,,,3.5862558,,3.5408837,3.5862558,3.5862558,4.7396326,1,1.149188,,,,,,,,,,,,,,,55110,1,2024-11-07_16h21.35.624,word_primimg,2024.1.5,None,2024-11-07 16h21.43.630087 +0530
cushion,,,,0,3,3,1,,,,,4.7829367,,4.740175,4.7829367,4.7829367,5.9898573,1.411111111,1.2065966,,,,,,,,,,,,,,,55110,1,2024-11-07_16h21.35.624,word_primimg,2024.1.5,None,2024-11-07 16h21.43.630087 +0530
Pastry,,,,0,4,4,9,,,,,6.0323454,,5.9904184,6.0323454,6.0323454,7.8860124,2.05,1.8632164,,,,,,,,,,,,,,,55110,1,2024-11-07_16h21.35.624,word_primimg,2024.1.5,None,2024-11-07 16h21.43.630087 +0530
marble,,,,0,5,5,3,,,,,7.9145796,,7.8862551,7.9145796,7.9145796,9.3886782,1.066666667,1.4641688,,,,,,,,,,,,,,,55110,1,2024-11-07_16h21.35.624,word_primimg,2024.1.5,None,2024-11-07 16h21.43.630087 +0530
Police,,,,0,6,6,12,,,,,9.4313199,,9.3891559,9.4313199,9.4313199,10.7878482,1.977777778,1.3567303,,,,,,,,,,,,,,,55110,1,2024-11-07_16h21.35.624,word_primimg,2024.1.5,None,2024-11-07 16h21.43.630087 +0530
Chart,,,,0,7,7,6,,,,,10.8307506,,10.7884099,10.8307506,10.8307506,12.2879252,1,1.4478607,,,,,,,,,,,,,,,55110,1,2024-11-07_16h21.35.624,word_primimg,2024.1.5,None,2024-11-07 16h21.43.630087 +0530
Laptop,,,,0,8,8,5,,,,,12.3298464,,12.2884941,12.3298464,12.3298464,13.287369,1,0.9512754,,,,,,,,,,,,,,,55110,1,2024-11-07_16h21.35.624,word_primimg,2024.1.5,None,2024-11-07 16h21.43.630087 +0530
Case,,,,0,9,9,10,,,,,13.3299121,,13.2879174,13.3299121,13.3299121,14.4868622,1,1.1551346,,,,,,,,,,,,,,,55110,1,2024-11-07_16h21.35.624,word_primimg,2024.1.5,None,2024-11-07 16h21.43.630087 +0530
Keys,,,,0,10,10,13,,,,,14.512664,,14.4874611,14.512664,14.512664,15.4865331,1,0.9551025,,,,,,,,,,,,,,,55110,1,2024-11-07_16h21.35.624,word_primimg,2024.1.5,None,2024-11-07 16h21.43.630087 +0530
board,,,,0,11,11,4,,,,,15.5291834,,15.4871451,15.5291834,15.5291834,16.483718,1,0.9638628,,,,,,,,,,,,,,,55110,1,2024-11-07_16h21.35.624,word_primimg,2024.1.5,None,2024-11-07 16h21.43.630087 +0530
book,,,,0,12,12,0,,,,,16.5286582,,16.4841144,16.5286582,16.5286582,17.4160903,1,0.904634,,,,,,,,,,,,,,,55110,1,2024-11-07_16h21.35.624,word_primimg,2024.1.5,None,2024-11-07 16h21.43.630087 +0530
mouse,,,,0,13,13,8,,,,,17.4452038,,17.4163646,17.4452038,17.4452038,19.1986011,2.988888889,1.7592238,,,,,,,,,,,,,,,55110,1,2024-11-07_16h21.35.624,word_primimg,2024.1.5,None,2024-11-07 16h21.43.630087 +0530
Cruise,,,,0,14,14,11,,,,,19.2277023,,19.1988917,19.2277023,19.2277023,21.0186003,1.083333333,1.7808712,,,,,,,,,,,,,,,55110,1,2024-11-07_16h21.35.624,word_primimg,2024.1.5,None,2024-11-07 16h21.43.630087 +0530
,c_s_,Case,old,,,,,0,0,0,5,21.0767609,,,,,,,,21.0340074,21.0767609,21.0767609,21.0767609,0.0208795,24.3949256,case,[-0.12638888888888888],[-0.3125],[1],[0],[0],[3.3545057999435812],['text_3'],55110,1,2024-11-07_16h21.35.624,word_primimg,2024.1.5,None,2024-11-07 16h21.43.630087 +0530
,_ru_is_,Cruise,old,,,,,0,1,1,6,24.4101487,,,,,,,,24.3963646,24.4101487,24.4101487,24.4101487,0.0034641,27.2463991,cruise,[-0.12638888888888888],[-0.3125],[1],[0],[0],[2.84583430015482],['text_3'],55110,1,2024-11-07_16h21.35.624,word_primimg,2024.1.5,None,2024-11-07 16h21.43.630087 +0530
,ta_l_,Table,new,,,,,0,2,2,15,27.2753238,,,,,,,,27.2477654,27.2753238,27.2753238,27.2753238,0.0047551,31.0766574,table,[-0.12638888888888888],[-0.3125],[1],[0],[0],[3.823894999921322],['text_3'],55110,1,2024-11-07_16h21.35.624,word_primimg,2024.1.5,None,2024-11-07 16h21.43.630087 +0530
,_o_rd,Board,old,,,,,0,3,3,10,31.0914877,,,,,,,,31.0772959,31.0914877,31.0914877,31.0914877,0.0029798,36.6429691,board,[-0.10833333333333334],[-0.2902777777777778],[1],[0],[0],[5.561677200021222],['text_3'],55110,1,2024-11-07_16h21.35.624,word_primimg,2024.1.5,None,2024-11-07 16h21.43.630087 +0530
,K_y_,Keys,old,,,,,0,4,4,8,36.6724063,,,,,,,,36.6441981,36.6724063,36.6724063,36.6724063,0.0043849,39.1235873,keys,[-0.10833333333333334],[-0.2902777777777778],[1],[0],[0],[2.4745855999644846],['text_3'],55110,1,2024-11-07_16h21.35.624,word_primimg,2024.1.5,None,2024-11-07 16h21.43.630087 +0530
,c_s_io_,Cushion,old,,,,,0,5,5,14,39.1386854,,,,,,,,39.1242736,39.1386854,39.1386854,39.1386854,0.002495,45.7222207,cushion,[-0.10833333333333334],[-0.2902777777777778],[1],[0],[0],[6.594646000070497],['text_3'],55110,1,2024-11-07_16h21.35.624,word_primimg,2024.1.5,None,2024-11-07 16h21.43.630087 +0530
,c_m_ra,Camera,new,,,,,0,6,6,19,45.7527013,,,,,,,,45.723668,45.7527013,45.7527013,45.7527013,0.0046387,49.0209538,camera,[-0.10833333333333334],[-0.2902777777777778],[1],[0],[0],[3.2917482999619097],['text_3'],55110,1,2024-11-07_16h21.35.624,word_primimg,2024.1.5,None,2024-11-07 16h21.43.630087 +0530
,_ho_e,Phone,old,,,,,0,7,7,12,49.0511073,,,,,,,,49.0221508,49.0511073,49.0511073,49.0511073,0.0045879,52.2703144,shoes,[-0.10833333333333334],[-0.2902777777777778],[1],[0],[0],[3.242668000049889],['text_3'],55110,1,2024-11-07_16h21.35.624,word_primimg,2024.1.5,None,2024-11-07 16h21.43.630087 +0530
,P_as_tr_,Pastry,old,,,,,0,8,8,4,52.3007223,,,,,,,,52.2715415,52.3007223,52.3007223,52.3007223,0.005326,61.5657736,pastry,[-0.10277777777777777],[-0.2902777777777778],[1],[0],[0],[9.28792309993878],['text_3'],55110,1,2024-11-07_16h21.35.624,word_primimg,2024.1.5,None,2024-11-07 16h21.43.630087 +0530
,_ou_se,mouse,old,,,,,0,9,9,3,61.596883,,,,,,,,61.5671537,61.596883,61.596883,61.596883,0.0049553,68.4314683,mouse,[-0.10277777777777777],[-0.2902777777777778],[1],[0],[0],[6.858445999911055],['text_3'],55110,1,2024-11-07_16h21.35.624,word_primimg,2024.1.5,None,2024-11-07 16h21.43.630087 +0530
,P_st_r,Poster,old,,,,,0,10,10,9,68.4611666,,,,,,,,68.4329599,68.4611666,68.4611666,68.4611666,0.0052237,74.413071,poster,[-0.10277777777777777],[-0.2902777777777778],[1],[0],[0],[5.97413990017958],['text_3'],55110,1,2024-11-07_16h21.35.624,word_primimg,2024.1.5,None,2024-11-07 16h21.43.630087 +0530
,l_pt_p,Laptop,old,,,,,0,11,11,0,74.4424966,,,,,,,,74.4140114,74.4424966,74.4424966,74.4424966,0.0035274,77.2447477,laptop,[-0.10277777777777777],[-0.2902777777777778],[1],[0],[0],[2.826634499942884],['text_3'],55110,1,2024-11-07_16h21.35.624,word_primimg,2024.1.5,None,2024-11-07 16h21.43.630087 +0530
,T_hi_t,Tshirt,old,,,,,0,12,12,2,77.2750355,,,,,,,,77.2457588,77.2750355,77.2750355,77.2750355,0.0039027,80.5755763,tshirt,[-0.10277777777777777],[-0.2902777777777778],[1],[0],[0],[3.3252616999670863],['text_3'],55110,1,2024-11-07_16h21.35.624,word_primimg,2024.1.5,None,2024-11-07 16h21.43.630087 +0530
,p_nc_l,Pencil,new,,,,,0,13,13,16,80.5905586,,,,,,,,80.5765381,80.5905586,80.5905586,80.5905586,0.0040757,84.7413613,pencil,[-0.10277777777777777],[-0.2902777777777778],[1],[0],[0],[4.1602091998793185],['text_3'],55110,1,2024-11-07_16h21.35.624,word_primimg,2024.1.5,None,2024-11-07 16h21.43.630087 +0530
,_a_bl_,Marble,old,,,,,0,14,14,11,84.771657,,,,,,,,84.7423533,84.771657,84.771657,84.771657,0.0039743,87.5070686,table,[-0.10277777777777777],[-0.2902777777777778],[1],[0],[0],[2.76029340014793],['text_3'],55110,1,2024-11-07_16h21.35.624,word_primimg,2024.1.5,None,2024-11-07 16h21.43.630087 +0530
,_oo_,Book,old,,,,,0,15,15,13,87.5376674,,,,,,,,87.5079678,87.5376674,87.5376674,87.5376674,0.0034918,89.8393227,book,[-0.10277777777777777],[-0.2902777777777778],[1],[0],[0],[2.3271904999855906],['text_3'],55110,1,2024-11-07_16h21.35.624,word_primimg,2024.1.5,None,2024-11-07 16h21.43.630087 +0530
,v_s_,Vase,new,,,,,0,16,16,17,89.8704149,,,,,,,,89.8402232,89.8704149,89.8704149,89.8704149,0.0054555,92.1228074,vase,[-0.10277777777777777],[-0.2902777777777778],[1],[0],[0],[2.2762909000739455],['text_3'],55110,1,2024-11-07_16h21.35.624,word_primimg,2024.1.5,None,2024-11-07 16h21.43.630087 +0530
,P_li_e,Police,old,,,,,0,17,17,7,92.1533096,,,,,,,,92.1238552,92.1533096,92.1533096,92.1533096,0.0039996,96.7214386,police,[-0.10277777777777777],[-0.2902777777777778],[1],[0],[0],[4.592816299991682],['text_3'],55110,1,2024-11-07_16h21.35.624,word_primimg,2024.1.5,None,2024-11-07 16h21.43.630087 +0530
,bo_t_e,Bottle,new,,,,,0,18,18,18,96.752067,,,,,,,,96.7227284,96.752067,96.752067,96.752067,0.0051149,99.7864323,bottle,[-0.10277777777777777],[-0.2902777777777778],[1],[0],[0],[3.0579715000931174],['text_3'],55110,1,2024-11-07_16h21.35.624,word_primimg,2024.1.5,None,2024-11-07 16h21.43.630087 +0530
,_ha_t,Chart,old,,,,,0,19,19,1,99.8169097,,,,,,,,99.7873383,99.8169097,99.8169097,99.8169097,0.0037537,102.2857883,chart,[-0.10277777777777777],[-0.2902777777777778],[1],[0],[0],[2.493690900038928],['text_3'],55110,1,2024-11-07_16h21.35.624,word_primimg,2024.1.5,None,2024-11-07 16h21.43.630087 +0530
