Study_word,test_word,References,old_new,trials.thisRepN,trials.thisTrialN,trials.thisN,trials.thisIndex,trials_2.thisRepN,trials_2.thisTrialN,trials_2.thisN,trials_2.thisIndex,thisRow.t,notes,trial.started,text.started,slider.started,trial.stopped,slider.response,slider.rt,test.started,text_2.started,textbox.started,text_3.started,mouse.started,test.stopped,textbox.text,mouse.x,mouse.y,mouse.leftButton,mouse.midButton,mouse.rightButton,mouse.time,mouse.clicked_name,participant,session,date,expName,psychopyVersion,frameRate,expStart,
book,,,,0,0,0,0,,,,,0.09620489994995296,,0.021891799988225102,0.09620489994995296,0.09620489994995296,2.6665687998756766,1.05,2.606201400049031,,,,,,,,,,,,,,,999246,001,2024-11-07_16h19.37.579,word_primimg,2024.1.5,None,2024-11-07 16h19.48.152784 +0530,
marble,,,,0,1,1,3,,,,,2.6954290000721812,,2.6670512999407947,2.6954290000721812,2.6954290000721812,4.216381199890748,1.6333333333333333,1.5242876999545842,,,,,,,,,,,,,,,999246,001,2024-11-07_16h19.37.579,word_primimg,2024.1.5,None,2024-11-07 16h19.48.152784 +0530,
mouse,,,,0,2,2,8,,,,,4.244844099972397,,4.216613499913365,4.244844099972397,4.244844099972397,5.648985699983314,1,1.4111224999651313,,,,,,,,,,,,,,,999246,001,2024-11-07_16h19.37.579,word_primimg,2024.1.5,None,2024-11-07 16h19.48.152784 +0530,
Chart,,,,0,3,3,6,,,,,5.677879800088704,,5.649235199904069,5.677879800088704,5.677879800088704,6.83509589987807,1,1.146623000036925,,,,,,,,,,,,,,,999246,001,2024-11-07_16h19.37.579,word_primimg,2024.1.5,None,2024-11-07 16h19.48.152784 +0530,
Case,,,,0,4,4,10,,,,,6.877917599864304,,6.835687699960545,6.877917599864304,6.877917599864304,7.714553700061515,1,0.8509381001349539,,,,,,,,,,,,,,,999246,001,2024-11-07_16h19.37.579,word_primimg,2024.1.5,None,2024-11-07 16h19.48.152784 +0530,
T-shirt,,,,0,5,5,7,,,,,7.743365299887955,,7.714800900081173,7.743365299887955,7.743365299887955,8.731884599896148,1,0.9924252000637352,,,,,,,,,,,,,,,999246,001,2024-11-07_16h19.37.579,word_primimg,2024.1.5,None,2024-11-07 16h19.48.152784 +0530,
Laptop,,,,0,6,6,5,,,,,8.760646499926224,,8.732145800022408,8.760646499926224,8.760646499926224,9.714108400046825,1,0.9579979998525232,,,,,,,,,,,,,,,999246,001,2024-11-07_16h19.37.579,word_primimg,2024.1.5,None,2024-11-07 16h19.48.152784 +0530,
board,,,,0,7,7,4,,,,,9.74286670004949,,9.714538099942729,9.74286670004949,9.74286670004949,10.70010400004685,1,0.9473961000330746,,,,,,,,,,,,,,,999246,001,2024-11-07_16h19.37.579,word_primimg,2024.1.5,None,2024-11-07 16h19.48.152784 +0530,
cushion,,,,0,8,8,1,,,,,10.743095200043172,,10.700739299878478,10.743095200043172,10.743095200043172,11.679899199865758,1,0.9468950999435037,,,,,,,,,,,,,,,999246,001,2024-11-07_16h19.37.579,word_primimg,2024.1.5,None,2024-11-07 16h19.48.152784 +0530,
Police,,,,0,9,9,12,,,,,11.70928329997696,,11.680143799865618,11.70928329997696,11.70928329997696,13.899491699878126,3.561111111111111,2.179156699916348,,,,,,,,,,,,,,,999246,001,2024-11-07_16h19.37.579,word_primimg,2024.1.5,None,2024-11-07 16h19.48.152784 +0530,
Cruise,,,,0,10,10,11,,,,,13.942149099893868,,13.900015600025654,13.942149099893868,13.942149099893868,15.381850000005215,2.9722222222222223,1.436962499981746,,,,,,,,,,,,,,,999246,001,2024-11-07_16h19.37.579,word_primimg,2024.1.5,None,2024-11-07 16h19.48.152784 +0530,
phone,,,,0,11,11,2,,,,,15.424595799995586,,15.382425999967381,15.424595799995586,15.424595799995586,17.66765969991684,1.0833333333333333,2.2370808999985456,,,,,,,,,,,,,,,999246,001,2024-11-07_16h19.37.579,word_primimg,2024.1.5,None,2024-11-07 16h19.48.152784 +0530,
Poster,,,,0,12,12,14,,,,,17.707225800026208,,17.66829840000719,17.707225800026208,17.707225800026208,19.12886260007508,1.8888888888888888,1.4299251998309046,,,,,,,,,,,,,,,999246,001,2024-11-07_16h19.37.579,word_primimg,2024.1.5,None,2024-11-07 16h19.48.152784 +0530,
Keys,,,,0,13,13,13,,,,,19.17346780002117,,19.129408800043166,19.17346780002117,19.17346780002117,20.330661699874327,1.0055555555555555,1.1560067001264542,,,,,,,,,,,,,,,999246,001,2024-11-07_16h19.37.579,word_primimg,2024.1.5,None,2024-11-07 16h19.48.152784 +0530,
Pastry,,,,0,14,14,9,,,,,20.35642179986462,,20.331246099900454,20.35642179986462,20.35642179986462,21.66009039990604,1.8777777777777778,1.3018441998865455,,,,,,,,,,,,,,,999246,001,2024-11-07_16h19.37.579,word_primimg,2024.1.5,None,2024-11-07 16h19.48.152784 +0530,
,c_s_io_,Cushion,old,,,,,0,0,0,14,21.68889719992876,,,,,,,,21.66674889996648,21.68889719992876,21.68889719992876,21.68889719992876,0.010263900039717555,28.089491700055078,cushion,[-0.15833333333333333],[-0.30694444444444446],[1],[0],[0],[6.418533599935472],['text_3'],999246,001,2024-11-07_16h19.37.579,word_primimg,2024.1.5,None,2024-11-07 16h19.48.152784 +0530,
,_ru_is_,Cruise,old,,,,,0,1,1,6,28.104820899898186,,,,,,,,28.090479200007394,28.104820899898186,28.104820899898186,28.104820899898186,0.002309999894350767,31.190400100080296,cruise,[-0.15833333333333333],[-0.30694444444444446],[1],[0],[0],[3.096604699967429],['text_3'],999246,001,2024-11-07_16h19.37.579,word_primimg,2024.1.5,None,2024-11-07 16h19.48.152784 +0530,
,ta_l_,Table,new,,,,,0,2,2,15,31.2196782999672,,,,,,,,31.191694699926302,31.2196782999672,31.2196782999672,31.2196782999672,0.005246500018984079,34.10492890002206,table,[-0.15833333333333333],[-0.30694444444444446],[1],[0],[0],[2.907213500002399],['text_3'],999246,001,2024-11-07_16h19.37.579,word_primimg,2024.1.5,None,2024-11-07 16h19.48.152784 +0530,
,v_s_,Vase,new,,,,,0,3,3,17,34.135371499927714,,,,,,,,34.10636559990235,34.135371499927714,34.135371499927714,34.135371499927714,0.007216600002720952,36.62017420004122,vase,[-0.15833333333333333],[-0.30694444444444446],[1],[0],[0],[2.505923799937591],['text_3'],999246,001,2024-11-07_16h19.37.579,word_primimg,2024.1.5,None,2024-11-07 16h19.48.152784 +0530,
,_ha_t,Chart,old,,,,,0,4,4,1,36.6511311000213,,,,,,,,36.621119200019166,36.6511311000213,36.6511311000213,36.6511311000213,0.004584799986332655,39.41858689999208,chart,[-0.15833333333333333],[-0.30694444444444446],[1],[0],[0],[2.792478800052777],['text_3'],999246,001,2024-11-07_16h19.37.579,word_primimg,2024.1.5,None,2024-11-07 16h19.48.152784 +0530,
,P_li_e,Police,old,,,,,0,5,5,7,39.43382939998992,,,,,,,,39.419387500034645,39.43382939998992,39.43382939998992,39.43382939998992,0.0028522999491542578,42.35254079988226,police,[-0.15833333333333333],[-0.30694444444444446],[1],[0],[0],[2.9294258998706937],['text_3'],999246,001,2024-11-07_16h19.37.579,word_primimg,2024.1.5,None,2024-11-07 16h19.48.152784 +0530,
,l_pt_p,Laptop,old,,,,,0,6,6,0,42.38235530001111,,,,,,,,42.35373650002293,42.38235530001111,42.38235530001111,42.38235530001111,0.004326700000092387,45.25089919986203,laptop,[-0.15833333333333333],[-0.30694444444444446],[1],[0],[0],[2.8919928001705557],['text_3'],999246,001,2024-11-07_16h19.37.579,word_primimg,2024.1.5,None,2024-11-07 16h19.48.152784 +0530,
,_oo_,Book,old,,,,,0,7,7,13,45.281605599913746,,,,,,,,45.25219199992716,45.281605599913746,45.281605599913746,45.281605599913746,0.0039502999279648066,48.31625139992684,book,[-0.15833333333333333],[-0.30694444444444446],[1],[0],[0],[3.0593536000233144],['text_3'],999246,001,2024-11-07_16h19.37.579,word_primimg,2024.1.5,None,2024-11-07 16h19.48.152784 +0530,
,p_nc_l,Pencil,new,,,,,0,8,8,16,48.346515599871054,,,,,,,,48.31750530004501,48.346515599871054,48.346515599871054,48.346515599871054,0.004512000130489469,51.31722890003584,pencil,[-0.15833333333333333],[-0.30694444444444446],[1],[0],[0],[2.994230000069365],['text_3'],999246,001,2024-11-07_16h19.37.579,word_primimg,2024.1.5,None,2024-11-07 16h19.48.152784 +0530,
,_ou_se,mouse,old,,,,,0,9,9,3,51.346151100005955,,,,,,,,51.31849440000951,51.346151100005955,51.346151100005955,51.346151100005955,0.004645099863409996,57.29783229995519,mouse,[-0.15833333333333333],[-0.30694444444444446],[1],[0],[0],[5.973774400074035],['text_3'],999246,001,2024-11-07_16h19.37.579,word_primimg,2024.1.5,None,2024-11-07 16h19.48.152784 +0530,
,P_as_tr_,Pastry,old,,,,,0,10,10,4,57.32713610003702,,,,,,,,57.2991549000144,57.32713610003702,57.32713610003702,57.32713610003702,0.005003700032830238,64.47697720001452,pastry,[-0.15833333333333333],[-0.30694444444444446],[1],[0],[0],[7.172369400039315],['text_3'],999246,001,2024-11-07_16h19.37.579,word_primimg,2024.1.5,None,2024-11-07 16h19.48.152784 +0530,
,T_hi_t,Tshirt,old,,,,,0,11,11,2,64.49202360003255,,,,,,,,64.4777517998591,64.49202360003255,64.49202360003255,64.49202360003255,0.0027421999257057905,68.10998259996995,tshirt,[-0.15833333333333333],[-0.30694444444444446],[1],[0],[0],[3.628652600105852],['text_3'],999246,001,2024-11-07_16h19.37.579,word_primimg,2024.1.5,None,2024-11-07 16h19.48.152784 +0530,
,_o_rd,Board,old,,,,,0,12,12,10,68.14067519991659,,,,,,,,68.11079710000195,68.14067519991659,68.14067519991659,68.14067519991659,0.003057599999010563,74.15764719992876,board,"[-0.08611111111111111, -0.09583333333333334]","[-0.2625, -0.2861111111111111]","[1, 1]","[0, 0]","[0, 0]","[5.210796300088987, 6.04289639997296]",['text_3'],999246,001,2024-11-07_16h19.37.579,word_primimg,2024.1.5,None,2024-11-07 16h19.48.152784 +0530,
,c_m_ra,Camera,new,,,,,0,13,13,19,74.18823569989763,,,,,,,,74.1588999000378,74.18823569989763,74.18823569989763,74.18823569989763,0.00450819986872375,77.3904303999152,camera,[-0.09583333333333334],[-0.2861111111111111],[1],[0],[0],[3.226164200110361],['text_3'],999246,001,2024-11-07_16h19.37.579,word_primimg,2024.1.5,None,2024-11-07 16h19.48.152784 +0530,
,P_st_r,Poster,old,,,,,0,14,14,9,77.41999450000003,,,,,,,,77.39159839996137,77.41999450000003,77.41999450000003,77.41999450000003,0.004608000162988901,81.33743459987454,poster,[-0.09583333333333334],[-0.2861111111111111],[1],[0],[0],[3.940593999810517],['text_3'],999246,001,2024-11-07_16h19.37.579,word_primimg,2024.1.5,None,2024-11-07 16h19.48.152784 +0530,
,_ho_e,Phone,old,,,,,0,15,15,12,81.35293599986471,,,,,,,,81.33812940004282,81.35293599986471,81.35293599986471,81.35293599986471,0.0028315000236034393,84.33921239990741,shoes,[-0.09583333333333334],[-0.2861111111111111],[1],[0],[0],[2.9976579998619854],['text_3'],999246,001,2024-11-07_16h19.37.579,word_primimg,2024.1.5,None,2024-11-07 16h19.48.152784 +0530,
,bo_t_e,Bottle,new,,,,,0,16,16,18,84.36787989991717,,,,,,,,84.34017449989915,84.36787989991717,84.36787989991717,84.36787989991717,0.004061700077727437,87.30218879994936,bottle,[-0.09583333333333334],[-0.2861111111111111],[1],[0],[0],[2.957612100057304],['text_3'],999246,001,2024-11-07_16h19.37.579,word_primimg,2024.1.5,None,2024-11-07 16h19.48.152784 +0530,
,K_y_,Keys,old,,,,,0,17,17,8,87.31828400003724,,,,,,,,87.30279029998928,87.31828400003724,87.31828400003724,87.31828400003724,0.0023001001682132483,89.936737800017,keys,[-0.09583333333333334],[-0.2861111111111111],[1],[0],[0],[2.630581800127402],['text_3'],999246,001,2024-11-07_16h19.37.579,word_primimg,2024.1.5,None,2024-11-07 16h19.48.152784 +0530,
,_a_bl_,Marble,old,,,,,0,18,18,11,89.96633259998634,,,,,,,,89.93801579996943,89.96633259998634,89.96633259998634,89.96633259998634,0.005126399919390678,92.70013449992985,table,[-0.09583333333333334],[-0.2861111111111111],[1],[0],[0],[2.7565696998499334],['text_3'],999246,001,2024-11-07_16h19.37.579,word_primimg,2024.1.5,None,2024-11-07 16h19.48.152784 +0530,
,c_s_,Case,old,,,,,0,19,19,5,92.71543169999495,,,,,,,,92.7007472999394,92.71543169999495,92.71543169999495,92.71543169999495,0.0023699000012129545,95.46736450004391,case,[-0.09583333333333334],[-0.2861111111111111],[1],[0],[0],[2.7630233000963926],['text_3'],999246,001,2024-11-07_16h19.37.579,word_primimg,2024.1.5,None,2024-11-07 16h19.48.152784 +0530,
