pos,corr_resp,trials.thisRepN,trials.thisTrialN,trials.thisN,trials.thisIndex,trials_2.thisRepN,trials_2.thisTrialN,trials_2.thisN,trials_2.thisIndex,thisRow.t,notes,trial.started,fixation.started,line1.started,line2.started,line3.started,line4.started,fixation.stopped,probe.started,key_resp.started,trial.stopped,key_resp.keys,key_resp.corr,key_resp.rt,key_resp.duration,participant,session,date,expName,psychopyVersion,frameRate,expStart,
-50,x,0,0,0,0,,,,,0.0414215000346303,,0.029437800054438412,0.0414215000346303,1.0055401000427082,1.0055401000427082,1.0055401000427082,1.0055401000427082,1.049910100060515,2.015903100022115,2.015903100022115,3.0737443000543863,x,1,0.953945399960503,None,640359,001,2024-10-11_12h17.30.967,motor sequence learning,2024.1.5,None,2024-10-11 12h17.43.770469 +0530,
150,v,0,1,1,1,,,,,3.0829208000795916,,3.0757295000366867,3.0829208000795916,4.08249640010763,4.08249640010763,4.08249640010763,4.08249640010763,4.08249640010763,5.081625700113364,5.081625700113364,6.250150800100528,v,1,1.163095699972473,None,640359,001,2024-10-11_12h17.30.967,motor sequence learning,2024.1.5,None,2024-10-11 12h17.43.770469 +0530,
50,c,0,2,2,2,,,,,6.267288200091571,,6.251748700044118,6.267288200091571,7.250934700015932,7.250934700015932,7.250934700015932,7.250934700015932,7.2641974000725895,8.263692400068976,8.263692400068976,9.083046800107695,c,1,0.8150515999877825,None,640359,001,2024-10-11_12h17.30.967,motor sequence learning,2024.1.5,None,2024-10-11 12h17.43.770469 +0530,
-150,z,0,3,3,3,,,,,9.100153700099327,,9.085267400019802,9.100153700099327,10.083270900067873,10.083270900067873,10.083270900067873,10.083270900067873,10.096740800072439,11.096369900042191,11.096369900042191,11.43206890008878,z,1,0.32930330000817776,None,640359,001,2024-10-11_12h17.30.967,motor sequence learning,2024.1.5,None,2024-10-11 12h17.43.770469 +0530,
-50,x,1,0,4,0,,,,,11.448885100078769,,11.434140300028957,11.448885100078769,12.445976300048642,12.445976300048642,12.445976300048642,12.445976300048642,12.445976300048642,13.445387600106187,13.445387600106187,13.931074000080116,x,1,0.47442169999703765,None,640359,001,2024-10-11_12h17.30.967,motor sequence learning,2024.1.5,None,2024-10-11 12h17.43.770469 +0530,
150,v,1,1,5,1,,,,,13.948159800027497,,13.932372100069188,13.948159800027497,14.931540900026448,14.931540900026448,14.931540900026448,14.931540900026448,14.94520780001767,15.944376300089061,15.944376300089061,16.846106400014833,b,0,0.889598699985072,None,640359,001,2024-10-11_12h17.30.967,motor sequence learning,2024.1.5,None,2024-10-11 12h17.43.770469 +0530,
50,c,1,2,6,2,,,,,16.863613300025463,,16.84764510008972,16.863613300025463,17.847523700096644,17.847523700096644,17.847523700096644,17.847523700096644,17.860666000051424,18.860174100031145,18.860174100031145,19.611558800097555,c,1,0.748274700017646,None,640359,001,2024-10-11_12h17.30.967,motor sequence learning,2024.1.5,None,2024-10-11 12h17.43.770469 +0530,
-150,z,1,3,7,3,,,,,19.62968470004853,,19.612924400018528,19.62968470004853,20.614228500053287,20.614228500053287,20.614228500053287,20.614228500053287,20.626814900082536,21.62641780008562,21.62641780008562,22.044492800021544,z,1,0.4033638999098912,None,640359,001,2024-10-11_12h17.30.967,motor sequence learning,2024.1.5,None,2024-10-11 12h17.43.770469 +0530,
-50,x,2,0,8,0,,,,,22.061609100084752,,22.045783100067638,22.061609100084752,23.047420000075363,23.047420000075363,23.047420000075363,23.047420000075363,23.059023300069384,24.0583203000715,24.0583203000715,25.359918900066987,x,1,1.290098899975419,None,640359,001,2024-10-11_12h17.30.967,motor sequence learning,2024.1.5,None,2024-10-11 12h17.43.770469 +0530,
150,v,2,1,9,1,,,,,25.378114100079983,,25.36133070010692,25.378114100079983,26.360397100099362,26.360397100099362,26.360397100099362,26.360397100099362,26.39098600007128,27.375431400025263,27.375431400025263,28.392165000084788,v,1,1.0070312999887392,None,640359,001,2024-10-11_12h17.30.967,motor sequence learning,2024.1.5,None,2024-10-11 12h17.43.770469 +0530,
50,c,2,2,10,2,,,,,28.40958950005006,,28.393874900066294,28.40958950005006,29.39621680008713,29.39621680008713,29.39621680008713,29.39621680008713,29.407655500108376,30.40610500006005,30.40610500006005,30.94132520002313,c,1,0.522138400003314,None,640359,001,2024-10-11_12h17.30.967,motor sequence learning,2024.1.5,None,2024-10-11 12h17.43.770469 +0530,
-150,z,2,3,11,3,,,,,30.95870970003307,,30.942754800082184,30.95870970003307,31.942458600038663,31.942458600038663,31.942458600038663,31.942458600038663,31.955833500018343,32.9556670000311,32.9556670000311,33.707168900058605,z,1,0.736705300048925,None,640359,001,2024-10-11_12h17.30.967,motor sequence learning,2024.1.5,None,2024-10-11 12h17.43.770469 +0530,
-50,x,3,0,12,0,,,,,33.72471730003599,,33.70877000002656,33.72471730003599,34.707827700069174,34.707827700069174,34.707827700069174,34.707827700069174,34.72171330009587,35.721353300032206,35.721353300032206,36.489321700064465,x,1,0.7567470000358298,None,640359,001,2024-10-11_12h17.30.967,motor sequence learning,2024.1.5,None,2024-10-11 12h17.43.770469 +0530,
150,v,3,1,13,1,,,,,36.50685770006385,,36.49083220004104,36.50685770006385,37.49136010010261,37.49136010010261,37.49136010010261,37.49136010010261,37.50415880000219,38.50364480004646,38.50364480004646,38.90486820007209,v,1,0.3842657000059262,None,640359,001,2024-10-11_12h17.30.967,motor sequence learning,2024.1.5,None,2024-10-11 12h17.43.770469 +0530,
50,c,3,2,14,2,,,,,38.92326030007098,,38.90621430007741,38.92326030007098,39.907302700099535,39.907302700099535,39.907302700099535,39.907302700099535,39.91991360008251,40.91930550010875,40.91930550010875,41.3042270001024,c,1,0.36826490005478263,None,640359,001,2024-10-11_12h17.30.967,motor sequence learning,2024.1.5,None,2024-10-11 12h17.43.770469 +0530,
-150,z,3,3,15,3,,,,,41.32218380004633,,41.30587240005843,41.32218380004633,42.305971300113015,42.305971300113015,42.305971300113015,42.305971300113015,42.31923910009209,43.3192075000843,43.3192075000843,43.6036939000478,z,1,0.2744872000766918,None,640359,001,2024-10-11_12h17.30.967,motor sequence learning,2024.1.5,None,2024-10-11 12h17.43.770469 +0530,
-50,x,4,0,16,0,,,,,43.62149830011185,,43.605398500105366,43.62149830011185,44.60759070003405,44.60759070003405,44.60759070003405,44.60759070003405,44.62044650001917,45.61785830010194,45.61785830010194,46.22066870005801,x,1,0.6004002999980003,None,640359,001,2024-10-11_12h17.30.967,motor sequence learning,2024.1.5,None,2024-10-11 12h17.43.770469 +0530,
150,v,4,1,17,1,,,,,46.2370037001092,,46.22202930005733,46.2370037001092,47.234492400079034,47.234492400079034,47.234492400079034,47.234492400079034,47.234492400079034,48.23384320002515,48.23384320002515,48.53552700008731,v,1,0.2908781999722123,None,640359,001,2024-10-11_12h17.30.967,motor sequence learning,2024.1.5,None,2024-10-11 12h17.43.770469 +0530,
50,c,4,2,18,2,,,,,48.552865100093186,,48.53704680001829,48.552865100093186,49.536410900065675,49.536410900065675,49.536410900065675,49.536410900065675,49.5499148000963,50.56524850009009,50.56524850009009,51.95091230003163,c,1,1.3824803999159485,None,640359,001,2024-10-11_12h17.30.967,motor sequence learning,2024.1.5,None,2024-10-11 12h17.43.770469 +0530,
-150,z,4,3,19,3,,,,,51.9685733000515,,51.95215980010107,51.9685733000515,52.95258070004638,52.95258070004638,52.95258070004638,52.95258070004638,52.965783899999224,53.96533040003851,53.96533040003851,54.332935200072825,z,1,0.35325409995857626,None,640359,001,2024-10-11_12h17.30.967,motor sequence learning,2024.1.5,None,2024-10-11 12h17.43.770469 +0530,
-50,x,5,0,20,0,,,,,54.35296150005888,,54.33369100000709,54.35296150005888,55.33458850008901,55.33458850008901,55.33458850008901,55.33458850008901,55.36490240006242,56.34801870002411,56.34801870002411,57.05000850011129,x,1,0.6964841999579221,None,640359,001,2024-10-11_12h17.30.967,motor sequence learning,2024.1.5,None,2024-10-11 12h17.43.770469 +0530,
150,v,5,1,21,1,,,,,57.067478400073014,,57.05234660010319,57.067478400073014,58.06508610001765,58.06508610001765,58.06508610001765,58.06508610001765,58.06508610001765,59.06348730006721,59.06348730006721,59.881352200056426,v,1,0.8045035999966785,None,640359,001,2024-10-11_12h17.30.967,motor sequence learning,2024.1.5,None,2024-10-11 12h17.43.770469 +0530,
50,c,5,2,22,2,,,,,59.899292300106026,,59.88270830002148,59.899292300106026,60.88393290003296,60.88393290003296,60.88393290003296,60.88393290003296,60.89609570009634,61.895733000012115,61.895733000012115,62.19764250004664,c,1,0.2981756000081077,None,640359,001,2024-10-11_12h17.30.967,motor sequence learning,2024.1.5,None,2024-10-11 12h17.43.770469 +0530,
-150,z,5,3,23,3,,,,,62.21512250008527,,62.19914930011146,62.21512250008527,63.19854580005631,63.19854580005631,63.19854580005631,63.19854580005631,63.21235520008486,64.2117564000655,64.2117564000655,64.62988210003823,z,1,0.41264170000795275,None,640359,001,2024-10-11_12h17.30.967,motor sequence learning,2024.1.5,None,2024-10-11 12h17.43.770469 +0530,
-50,x,6,0,24,0,,,,,64.64753700001165,,64.63123460009228,64.64753700001165,65.63179410004523,65.63179410004523,65.63179410004523,65.63179410004523,65.64547860005405,66.64416160003748,66.64416160003748,67.36309120000806,x,1,0.7053033999400213,None,640359,001,2024-10-11_12h17.30.967,motor sequence learning,2024.1.5,None,2024-10-11 12h17.43.770469 +0530,
150,v,6,1,25,1,,,,,67.38114680000581,,67.36452940001618,67.38114680000581,68.36862420011312,68.36862420011312,68.36862420011312,68.36862420011312,68.38313770003151,69.3764973001089,69.3764973001089,69.86235510010738,v,1,0.478774799965322,None,640359,001,2024-10-11_12h17.30.967,motor sequence learning,2024.1.5,None,2024-10-11 12h17.43.770469 +0530,
50,c,6,2,26,2,,,,,69.87917290010955,,69.8637498000171,69.87917290010955,70.86310900002718,70.86310900002718,70.86310900002718,70.86310900002718,70.8763829000527,71.87584410002455,71.87584410002455,72.21063640003558,c,1,0.3237415000330657,None,640359,001,2024-10-11_12h17.30.967,motor sequence learning,2024.1.5,None,2024-10-11 12h17.43.770469 +0530,
-150,z,6,3,27,3,,,,,72.2284437000053,,72.2119766001124,72.2284437000053,73.2122335000895,73.2122335000895,73.2122335000895,73.2122335000895,73.22554330003913,74.22508760006167,74.22508760006167,74.49348850001115,z,1,0.2650435999967158,None,640359,001,2024-10-11_12h17.30.967,motor sequence learning,2024.1.5,None,2024-10-11 12h17.43.770469 +0530,
-50,x,7,0,28,0,,,,,74.51106480008457,,74.49489670002367,74.51106480008457,75.49412740010303,75.49412740010303,75.49412740010303,75.49412740010303,75.50825540011283,76.50837900000624,76.50837900000624,76.94237950001843,x,1,0.4178770000580698,None,640359,001,2024-10-11_12h17.30.967,motor sequence learning,2024.1.5,None,2024-10-11 12h17.43.770469 +0530,
150,v,7,1,29,1,,,,,76.96026310010348,,76.94423480005935,76.96026310010348,77.94337250001263,77.94337250001263,77.94337250001263,77.94337250001263,77.95705950004049,78.95675040001515,78.95675040001515,80.37480630003847,v,1,1.413155399961397,None,640359,001,2024-10-11_12h17.30.967,motor sequence learning,2024.1.5,None,2024-10-11 12h17.43.770469 +0530,
50,c,7,2,30,2,,,,,80.39196060004178,,80.37652830011211,80.39196060004178,81.37596650002524,81.37596650002524,81.37596650002524,81.37596650002524,81.38965520006604,82.38884430006146,82.38884430006146,83.60775650001597,c,1,1.2104799998924136,None,640359,001,2024-10-11_12h17.30.967,motor sequence learning,2024.1.5,None,2024-10-11 12h17.43.770469 +0530,
-150,z,7,3,31,3,,,,,83.6243444000138,,83.60986570001114,83.6243444000138,84.62187620007899,84.62187620007899,84.62187620007899,84.62187620007899,84.62187620007899,85.62134640000295,85.62134640000295,85.97254350001458,z,1,0.34257249999791384,None,640359,001,2024-10-11_12h17.30.967,motor sequence learning,2024.1.5,None,2024-10-11 12h17.43.770469 +0530,
-50,x,8,0,32,0,,,,,85.99084380001295,,85.97406640008558,85.99084380001295,86.97378410003148,86.97378410003148,86.97378410003148,86.97378410003148,86.98705690004863,87.98724480008241,87.98724480008241,88.57205539999995,x,1,0.5716335000470281,None,640359,001,2024-10-11_12h17.30.967,motor sequence learning,2024.1.5,None,2024-10-11 12h17.43.770469 +0530,
150,v,8,1,33,1,,,,,88.58994640002493,,88.57394460006617,88.58994640002493,89.5732964000199,89.5732964000199,89.5732964000199,89.5732964000199,89.58668960002251,90.58582660008688,90.58582660008688,91.33828360005282,v,1,0.748014000011608,None,640359,001,2024-10-11_12h17.30.967,motor sequence learning,2024.1.5,None,2024-10-11 12h17.43.770469 +0530,
50,c,8,2,34,2,,,,,91.35516370006371,,91.33975940011442,91.35516370006371,92.34240290010348,92.34240290010348,92.34240290010348,92.34240290010348,92.3543384000659,93.35196080000605,93.35196080000605,94.90322630002629,c,1,1.5407397999661043,None,640359,001,2024-10-11_12h17.30.967,motor sequence learning,2024.1.5,None,2024-10-11 12h17.43.770469 +0530,
-150,z,8,3,35,3,,,,,94.9213767000474,,94.90457590005826,94.9213767000474,95.90505210007541,95.90505210007541,95.90505210007541,95.90505210007541,95.9180182000855,96.9176089001121,96.9176089001121,98.4513116000453,z,1,1.5275798999937251,None,640359,001,2024-10-11_12h17.30.967,motor sequence learning,2024.1.5,None,2024-10-11 12h17.43.770469 +0530,
-50,x,9,0,36,0,,,,,98.46940990001895,,98.45206200005487,98.46940990001895,99.45297010010108,99.45297010010108,99.45297010010108,99.45297010010108,99.46669110003859,100.46679930004757,100.46679930004757,101.49993110005744,x,1,1.017586899921298,None,640359,001,2024-10-11_12h17.30.967,motor sequence learning,2024.1.5,None,2024-10-11 12h17.43.770469 +0530,
150,v,9,1,37,1,,,,,101.5183983000461,,101.50085910002235,101.5183983000461,102.50238360010553,102.50238360010553,102.50238360010553,102.50238360010553,102.51558100001421,103.51541980006732,103.51541980006732,105.99994330003392,v,1,2.475979099981487,None,640359,001,2024-10-11_12h17.30.967,motor sequence learning,2024.1.5,None,2024-10-11 12h17.43.770469 +0530,
50,c,9,2,38,2,,,,,106.01754380005877,,106.00137030007318,106.01754380005877,107.00231280003209,107.00231280003209,107.00231280003209,107.00231280003209,107.01550140010659,108.01598060003016,108.01598060003016,108.64797850011382,c,1,0.620733099989593,None,640359,001,2024-10-11_12h17.30.967,motor sequence learning,2024.1.5,None,2024-10-11 12h17.43.770469 +0530,
-150,z,9,3,39,3,,,,,108.6658736000536,,108.64946480002254,108.6658736000536,109.65038420003839,109.65038420003839,109.65038420003839,109.65038420003839,109.66342860006262,110.66261430003215,110.66261430003215,111.26500210002996,z,1,0.5994427000405267,None,640359,001,2024-10-11_12h17.30.967,motor sequence learning,2024.1.5,None,2024-10-11 12h17.43.770469 +0530,
-50,x,10,0,40,0,,,,,111.28158700000495,,111.2662954000989,111.28158700000495,112.26543240004685,112.26543240004685,112.26543240004685,112.26543240004685,112.27869890001602,113.27818160003517,113.27818160003517,117.92894140002318,x,1,4.646305599948391,None,640359,001,2024-10-11_12h17.30.967,motor sequence learning,2024.1.5,None,2024-10-11 12h17.43.770469 +0530,
150,v,10,1,41,1,,,,,117.9468452000292,,117.93071540002711,117.9468452000292,118.93049590010196,118.93049590010196,118.93049590010196,118.93049590010196,118.943361200043,119.94341040006839,119.94341040006839,120.59574160003103,v,1,0.636568299960345,None,640359,001,2024-10-11_12h17.30.967,motor sequence learning,2024.1.5,None,2024-10-11 12h17.43.770469 +0530,
50,c,10,2,42,2,,,,,120.61253820010461,,120.59710450004786,120.61253820010461,121.60961260006297,121.60961260006297,121.60961260006297,121.60961260006297,121.60961260006297,122.6089538000524,122.6089538000524,123.91060770000331,c,1,1.2979705999605358,None,640359,001,2024-10-11_12h17.30.967,motor sequence learning,2024.1.5,None,2024-10-11 12h17.43.770469 +0530,
-150,z,10,3,43,3,,,,,123.9275766001083,,123.91197660006583,123.9275766001083,124.91211840009782,124.91211840009782,124.91211840009782,124.91211840009782,124.92479240009561,125.92407410009764,125.92407410009764,127.49162490002345,z,1,1.559806099976413,None,640359,001,2024-10-11_12h17.30.967,motor sequence learning,2024.1.5,None,2024-10-11 12h17.43.770469 +0530,
-50,x,11,0,44,0,,,,,127.50958940002602,,127.49246070010122,127.50958940002602,128.49300750007387,128.49300750007387,128.49300750007387,128.49300750007387,128.50696010002866,129.50615560007282,129.50615560007282,131.82496890006587,x,1,2.3150804999750108,None,640359,001,2024-10-11_12h17.30.967,motor sequence learning,2024.1.5,None,2024-10-11 12h17.43.770469 +0530,
150,v,11,1,45,1,,,,,131.84159460000228,,131.82645580009557,131.84159460000228,132.8257960000774,132.8257960000774,132.8257960000774,132.8257960000774,132.83873320010025,133.83809180010576,133.83809180010576,134.540108300047,v,1,0.6978544000303373,None,640359,001,2024-10-11_12h17.30.967,motor sequence learning,2024.1.5,None,2024-10-11 12h17.43.770469 +0530,
50,c,11,2,46,2,,,,,134.55739340011496,,134.54164560011122,134.55739340011496,135.5416169000091,135.5416169000091,135.5416169000091,135.5416169000091,135.55429810006171,136.5538244000636,136.5538244000636,137.4054498000769,c,1,0.8414323999313638,None,640359,001,2024-10-11_12h17.30.967,motor sequence learning,2024.1.5,None,2024-10-11 12h17.43.770469 +0530,
-150,z,11,3,47,3,,,,,137.42295280005783,,137.40695150010288,137.42295280005783,138.40689900005236,138.40689900005236,138.40689900005236,138.40689900005236,138.42023070005234,139.41982530010864,139.41982530010864,140.10516510007437,z,1,0.6751306999940425,None,640359,001,2024-10-11_12h17.30.967,motor sequence learning,2024.1.5,None,2024-10-11 12h17.43.770469 +0530,
150,v,,,,,0,0,0,1,140.12924540007953,,140.11952300008852,140.12924540007953,141.10630690003745,141.10630690003745,141.10630690003745,141.10630690003745,141.1360828001052,142.11869780009147,142.11869780009147,143.51892990001943,v,1,1.384652099921368,None,640359,001,2024-10-11_12h17.30.967,motor sequence learning,2024.1.5,None,2024-10-11 12h17.43.770469 +0530,
150,v,,,,,0,1,1,1,143.53748460009228,,143.5201905000722,143.53748460009228,144.52130320004653,144.52130320004653,144.52130320004653,144.52130320004653,144.53489090001676,145.5345203001052,145.5345203001052,145.80253090010956,c,0,0.2552077000727877,None,640359,001,2024-10-11_12h17.30.967,motor sequence learning,2024.1.5,None,2024-10-11 12h17.43.770469 +0530,
-150,z,,,,,0,2,2,3,145.82058010005858,,145.80423330003396,145.82058010005858,146.80577510001604,146.80577510001604,146.80577510001604,146.80577510001604,146.81757380010094,147.8167491001077,147.8167491001077,148.9524166000774,z,1,1.1268603999633342,None,640359,001,2024-10-11_12h17.30.967,motor sequence learning,2024.1.5,None,2024-10-11 12h17.43.770469 +0530,
150,v,,,,,0,3,3,1,148.9692062000977,,148.95381240011193,148.9692062000977,149.95309040008578,149.95309040008578,149.95309040008578,149.95309040008578,149.9662083000876,150.96542830008548,150.96542830008548,151.7835612000199,v,1,0.803219800000079,None,640359,001,2024-10-11_12h17.30.967,motor sequence learning,2024.1.5,None,2024-10-11 12h17.43.770469 +0530,
150,v,,,,,1,0,4,1,151.80134160001762,,151.78458400000818,151.80134160001762,152.78508310008328,152.78508310008328,152.78508310008328,152.78508310008328,152.79870670009404,153.7981555000879,153.7981555000879,154.56588350003585,v,1,0.7548064000438899,None,640359,001,2024-10-11_12h17.30.967,motor sequence learning,2024.1.5,None,2024-10-11 12h17.43.770469 +0530,
-50,x,,,,,1,1,5,0,154.58414900000207,,154.5679540000856,154.58414900000207,155.56949690007605,155.56949690007605,155.56949690007605,155.56949690007605,155.5809731000336,156.58083580003586,156.58083580003586,157.28259300009813,x,1,0.6873269999632612,None,640359,001,2024-10-11_12h17.30.967,motor sequence learning,2024.1.5,None,2024-10-11 12h17.43.770469 +0530,
50,c,,,,,1,2,6,2,157.2997652000049,,157.28425240004435,157.2997652000049,158.2831835000543,158.2831835000543,158.2831835000543,158.2831835000543,158.29665860009845,159.2964533000486,159.2964533000486,159.8978137000231,c,1,0.5919602999929339,None,640359,001,2024-10-11_12h17.30.967,motor sequence learning,2024.1.5,None,2024-10-11 12h17.43.770469 +0530,
-50,x,,,,,1,3,7,0,159.91515520005487,,159.8990616000956,159.91515520005487,160.89912380010355,160.89912380010355,160.89912380010355,160.89912380010355,160.91245720000006,161.91188010002952,161.91188010002952,162.53025740000885,x,1,0.6109945999924093,None,640359,001,2024-10-11_12h17.30.967,motor sequence learning,2024.1.5,None,2024-10-11 12h17.43.770469 +0530,
-150,z,,,,,2,0,8,3,162.54796800005715,,162.5312187001109,162.54796800005715,163.53145740006585,163.53145740006585,163.53145740006585,163.53145740006585,163.54527050000615,164.54469130001962,164.54469130001962,165.47951970004942,z,1,0.9236237000441179,None,640359,001,2024-10-11_12h17.30.967,motor sequence learning,2024.1.5,None,2024-10-11 12h17.43.770469 +0530,
50,c,,,,,2,1,9,2,165.4967882001074,,165.48118730005808,165.4967882001074,166.48049860005267,166.48049860005267,166.48049860005267,166.48049860005267,166.49423550011124,167.49350050010253,167.49350050010253,168.82835390011314,c,1,1.3276010000845417,None,640359,001,2024-10-11_12h17.30.967,motor sequence learning,2024.1.5,None,2024-10-11 12h17.43.770469 +0530,
-50,x,,,,,2,2,10,0,168.84575550002046,,168.8296559000155,168.84575550002046,169.82924470002763,169.82924470002763,169.82924470002763,169.82924470002763,169.84280430001672,170.84239210002124,170.84239210002124,171.51017790008336,x,1,0.6643408999079838,None,640359,001,2024-10-11_12h17.30.967,motor sequence learning,2024.1.5,None,2024-10-11 12h17.43.770469 +0530,
50,c,,,,,2,3,11,2,171.52843700000085,,171.51158340007532,171.52843700000085,172.5114075000165,172.5114075000165,172.5114075000165,172.5114075000165,172.52516200009268,173.52527440001722,173.52527440001722,174.17656660010107,c,1,0.6370014999993145,None,640359,001,2024-10-11_12h17.30.967,motor sequence learning,2024.1.5,None,2024-10-11 12h17.43.770469 +0530,
-150,z,,,,,3,0,12,3,174.194240400102,,174.17828010011,174.194240400102,175.17799540003762,175.17799540003762,175.17799540003762,175.17799540003762,175.19111930008512,176.19038340006955,176.19038340006955,177.00852390006185,z,1,0.8076498000882566,None,640359,001,2024-10-11_12h17.30.967,motor sequence learning,2024.1.5,None,2024-10-11 12h17.43.770469 +0530,
-150,z,,,,,3,1,13,3,177.0261919000186,,177.00988980010152,177.0261919000186,178.00933040003292,178.00933040003292,178.00933040003292,178.00933040003292,178.02356310002506,179.02296100009698,179.02296100009698,179.74140990001615,z,1,0.708571600029245,None,640359,001,2024-10-11_12h17.30.967,motor sequence learning,2024.1.5,None,2024-10-11 12h17.43.770469 +0530,
-150,z,,,,,3,2,14,3,179.75913740007672,,179.74304540001322,179.75913740007672,180.74277850007638,180.74277850007638,180.74277850007638,180.74277850007638,180.7558382001007,181.75549650005996,181.75549650005996,182.2567091000965,z,1,0.49286719993688166,None,640359,001,2024-10-11_12h17.30.967,motor sequence learning,2024.1.5,None,2024-10-11 12h17.43.770469 +0530,
-150,z,,,,,3,3,15,3,182.2754476000555,,182.25876300001983,182.2754476000555,183.2616145000793,183.2616145000793,183.2616145000793,183.2616145000793,183.2733974000439,184.2713188000489,184.2713188000489,184.8724925001152,z,1,0.5862160000251606,None,640359,001,2024-10-11_12h17.30.967,motor sequence learning,2024.1.5,None,2024-10-11 12h17.43.770469 +0530,
-50,x,,,,,4,0,16,0,184.8904152000323,,184.87427620007657,184.8904152000323,185.87600790010765,185.87600790010765,185.87600790010765,185.87600790010765,185.88759670010768,186.8868520000251,186.8868520000251,187.62160830001812,x,1,0.7206644000252709,None,640359,001,2024-10-11_12h17.30.967,motor sequence learning,2024.1.5,None,2024-10-11 12h17.43.770469 +0530,
50,c,,,,,4,1,17,2,187.63937600003555,,187.62294640007894,187.63937600003555,188.6232834000839,188.6232834000839,188.6232834000839,188.6232834000839,188.63674940005876,189.63584750005975,189.63584750005975,190.32101130008232,c,1,0.673685000045225,None,640359,001,2024-10-11_12h17.30.967,motor sequence learning,2024.1.5,None,2024-10-11 12h17.43.770469 +0530,
50,c,,,,,4,2,18,2,190.3386003000196,,190.32251030008774,190.3386003000196,191.32201950007584,191.32201950007584,191.32201950007584,191.32201950007584,191.33564699999988,192.33506030007266,192.33506030007266,193.02070660004392,c,1,0.6811041000764817,None,640359,001,2024-10-11_12h17.30.967,motor sequence learning,2024.1.5,None,2024-10-11 12h17.43.770469 +0530,
150,v,,,,,4,3,19,1,193.0375557000516,,193.0223224000074,193.0375557000516,194.02094440010842,194.02094440010842,194.02094440010842,194.02094440010842,194.03460120002273,195.03409100009594,195.03409100009594,195.7687649000436,v,1,0.7315751999849454,None,640359,001,2024-10-11_12h17.30.967,motor sequence learning,2024.1.5,None,2024-10-11 12h17.43.770469 +0530,
-50,x,,,,,5,0,20,0,195.78671600006055,,195.77039140008856,195.78671600006055,196.77092510007787,196.77092510007787,196.77092510007787,196.77092510007787,196.78382220002823,197.7834779000841,197.7834779000841,198.53553720004857,x,1,0.7474497000221163,None,640359,001,2024-10-11_12h17.30.967,motor sequence learning,2024.1.5,None,2024-10-11 12h17.43.770469 +0530,
50,c,,,,,5,1,21,2,198.55216040008236,,198.53692300000694,198.55216040008236,199.53598320006859,199.53598320006859,199.53598320006859,199.53598320006859,199.54919360007625,200.5488310001092,200.5488310001092,201.25024340010714,c,1,0.695901499944739,None,640359,001,2024-10-11_12h17.30.967,motor sequence learning,2024.1.5,None,2024-10-11 12h17.43.770469 +0530,
50,c,,,,,5,2,22,2,201.26834210008383,,201.2517728001112,201.26834210008383,202.25163410010282,202.25163410010282,202.25163410010282,202.25163410010282,202.2652015000349,203.26501480001025,203.26501480001025,204.21706690010615,c,1,0.9498222999973223,None,640359,001,2024-10-11_12h17.30.967,motor sequence learning,2024.1.5,None,2024-10-11 12h17.43.770469 +0530,
-150,z,,,,,5,3,23,3,204.2338327000616,,204.2186623000307,204.2338327000616,205.21782180003356,205.21782180003356,205.21782180003356,205.21782180003356,205.23086550005246,206.23063860007096,206.23063860007096,206.84854750009254,z,1,0.604727300000377,None,640359,001,2024-10-11_12h17.30.967,motor sequence learning,2024.1.5,None,2024-10-11 12h17.43.770469 +0530,
-150,z,,,,,6,0,24,3,206.8665226000594,,206.85004130005836,206.8665226000594,207.84971680003218,207.84971680003218,207.84971680003218,207.84971680003218,207.86355050001293,208.86302000004798,208.86302000004798,209.7148277000524,z,1,0.8472986000124365,None,640359,001,2024-10-11_12h17.30.967,motor sequence learning,2024.1.5,None,2024-10-11 12h17.43.770469 +0530,
150,v,,,,,6,1,25,1,209.7322806000011,,209.71624200011138,209.7322806000011,210.71574530005455,210.71574530005455,210.71574530005455,210.71574530005455,210.72912370006088,211.72844250011258,211.72844250011258,213.04653210006654,v,1,1.3005704999668524,None,640359,001,2024-10-11_12h17.30.967,motor sequence learning,2024.1.5,None,2024-10-11 12h17.43.770469 +0530,
150,v,,,,,6,2,26,1,213.0645890000742,,213.04814420000184,213.0645890000742,214.04864310007542,214.04864310007542,214.04864310007542,214.04864310007542,214.06181199999992,215.0609427000163,215.0609427000163,216.16206820006482,v,1,1.0869453999912366,None,640359,001,2024-10-11_12h17.30.967,motor sequence learning,2024.1.5,None,2024-10-11 12h17.43.770469 +0530,
50,c,,,,,6,3,27,2,216.18003590009175,,216.16356260003522,216.18003590009175,217.16331750003155,217.16331750003155,217.16331750003155,217.16331750003155,217.17716860002838,218.17651420005132,218.17651420005132,218.99451050010975,c,1,0.8012447999790311,None,640359,001,2024-10-11_12h17.30.967,motor sequence learning,2024.1.5,None,2024-10-11 12h17.43.770469 +0530,
50,c,,,,,7,0,28,2,219.0120080000488,,218.99590259999968,219.0120080000488,219.99549730005674,219.99549730005674,219.99549730005674,219.99549730005674,220.00931920006406,221.00914660003036,221.00914660003036,221.7104718000628,c,1,0.6847182000055909,None,640359,001,2024-10-11_12h17.30.967,motor sequence learning,2024.1.5,None,2024-10-11 12h17.43.770469 +0530,
-50,x,,,,,7,1,29,0,221.72796230006497,,221.71222920005675,221.72796230006497,222.7119481000118,222.7119481000118,222.7119481000118,222.7119481000118,222.72526080009993,223.72439300001133,223.72439300001133,224.34262710006442,x,1,0.6038811999605969,None,640359,001,2024-10-11_12h17.30.967,motor sequence learning,2024.1.5,None,2024-10-11 12h17.43.770469 +0530,
-50,x,,,,,7,2,30,0,224.36039060004987,,224.3440253000008,224.36039060004987,225.34434930002317,225.34434930002317,225.34434930002317,225.34434930002317,225.35777150001377,226.35754680004902,226.35754680004902,227.17463130003307,x,1,0.8003554000752047,None,640359,001,2024-10-11_12h17.30.967,motor sequence learning,2024.1.5,None,2024-10-11 12h17.43.770469 +0530,
150,v,,,,,7,3,31,1,227.19306300010066,,227.1754356001038,227.19306300010066,228.17677260003984,228.17677260003984,228.17677260003984,228.17677260003984,228.18977440008894,229.18931820010766,229.18931820010766,230.0231506000273,v,1,0.8182683999184519,None,640359,001,2024-10-11_12h17.30.967,motor sequence learning,2024.1.5,None,2024-10-11 12h17.43.770469 +0530,
-50,x,,,,,8,0,32,0,230.04153760010377,,230.02416290005203,230.04153760010377,231.02539460000116,231.02539460000116,231.02539460000116,231.02539460000116,231.03900840005372,232.0382804000983,232.0382804000983,232.75596660003066,x,1,0.7009585999185219,None,640359,001,2024-10-11_12h17.30.967,motor sequence learning,2024.1.5,None,2024-10-11 12h17.43.770469 +0530,
-150,z,,,,,8,1,33,3,232.77415870002005,,232.7570299000945,232.77415870002005,233.75791820010636,233.75791820010636,233.75791820010636,233.75791820010636,233.77135680010542,234.7710164000746,234.7710164000746,235.6553072000388,z,1,0.86706000007689,None,640359,001,2024-10-11_12h17.30.967,motor sequence learning,2024.1.5,None,2024-10-11 12h17.43.770469 +0530,
-50,x,,,,,8,2,34,0,235.67372820002493,,235.6568492000224,235.67372820002493,236.65969840006437,236.65969840006437,236.65969840006437,236.65969840006437,236.67364180006552,237.6695928000845,237.6695928000845,238.471151500009,x,1,0.7882487000897527,None,640359,001,2024-10-11_12h17.30.967,motor sequence learning,2024.1.5,None,2024-10-11 12h17.43.770469 +0530,
150,v,,,,,8,3,35,1,238.48856210010126,,238.47273330006283,238.48856210010126,239.47264790011104,239.47264790011104,239.47264790011104,239.47264790011104,239.48580980009865,240.48575100000016,240.48575100000016,241.87046750006266,v,1,1.3760295000392944,None,640359,001,2024-10-11_12h17.30.967,motor sequence learning,2024.1.5,None,2024-10-11 12h17.43.770469 +0530,
150,v,,,,,9,0,36,1,241.88809380005114,,241.87195160007104,241.88809380005114,242.8718725000508,242.8718725000508,242.8718725000508,242.8718725000508,242.8847025000723,243.88401320006233,243.88401320006233,244.6530752000399,v,1,0.757791000069119,None,640359,001,2024-10-11_12h17.30.967,motor sequence learning,2024.1.5,None,2024-10-11 12h17.43.770469 +0530,
-150,z,,,,,9,1,37,3,244.6701242000563,,244.65608120011166,244.6701242000563,245.66747010010295,245.66747010010295,245.66747010010295,245.66747010010295,245.66747010010295,246.6667116000317,246.6667116000317,247.45195730007254,z,1,0.7702734000049531,None,640359,001,2024-10-11_12h17.30.967,motor sequence learning,2024.1.5,None,2024-10-11 12h17.43.770469 +0530,
-150,z,,,,,9,2,38,3,247.46963580010924,,247.45384540001396,247.46963580010924,248.45379520009737,248.45379520009737,248.45379520009737,248.45379520009737,248.4665778001072,249.4659384000115,249.4659384000115,250.35132350004278,z,1,0.8818803000031039,None,640359,001,2024-10-11_12h17.30.967,motor sequence learning,2024.1.5,None,2024-10-11 12h17.43.770469 +0530,
50,c,,,,,9,3,39,2,250.36852010001894,,250.35282060003374,250.36852010001894,251.35206570010632,251.35206570010632,251.35206570010632,251.35206570010632,251.36531130003277,252.36508350004442,252.36508350004442,253.36630130000412,c,1,0.9865334999049082,None,640359,001,2024-10-11_12h17.30.967,motor sequence learning,2024.1.5,None,2024-10-11 12h17.43.770469 +0530,
50,c,,,,,10,0,40,2,253.38367740006652,,253.36770880001131,253.38367740006652,254.3681756000733,254.3681756000733,254.3681756000733,254.3681756000733,254.38089800009038,255.38043500005733,255.38043500005733,256.0319967000978,c,1,0.6463600000133738,None,640359,001,2024-10-11_12h17.30.967,motor sequence learning,2024.1.5,None,2024-10-11 12h17.43.770469 +0530,
-150,z,,,,,10,1,41,3,256.04994630010333,,256.0334789000917,256.04994630010333,257.0329581000842,257.0329581000842,257.0329581000842,257.0329581000842,257.0469847000204,258.0462205000222,258.0462205000222,258.76534910011105,z,1,0.7105965000810102,None,640359,001,2024-10-11_12h17.30.967,motor sequence learning,2024.1.5,None,2024-10-11 12h17.43.770469 +0530,
-50,x,,,,,10,2,42,0,258.78204260009807,,258.76712270011194,258.78204260009807,259.7669655000791,259.7669655000791,259.7669655000791,259.7669655000791,259.77914440003224,260.778452700004,260.778452700004,261.430564600043,x,1,0.643372300080955,None,640359,001,2024-10-11_12h17.30.967,motor sequence learning,2024.1.5,None,2024-10-11 12h17.43.770469 +0530,
-50,x,,,,,10,3,43,0,261.44850590010174,,261.4319586000638,261.44850590010174,262.4336624001153,262.4336624001153,262.4336624001153,262.4336624001153,262.446837500087,263.4444672000827,263.4444672000827,264.3961569000967,x,1,0.9480940999928862,None,640359,001,2024-10-11_12h17.30.967,motor sequence learning,2024.1.5,None,2024-10-11 12h17.43.770469 +0530,
150,v,,,,,11,0,44,1,264.41356120002456,,264.39763870008755,264.41356120002456,265.3971783000743,265.3971783000743,265.3971783000743,265.3971783000743,265.410586800077,266.41031160007697,266.41031160007697,267.7609990000492,v,1,1.339750099927187,None,640359,001,2024-10-11_12h17.30.967,motor sequence learning,2024.1.5,None,2024-10-11 12h17.43.770469 +0530,
150,v,,,,,11,1,45,1,267.77895630011335,,267.76250550011173,267.77895630011335,268.7634747000411,268.7634747000411,268.7634747000411,268.7634747000411,268.7757063000463,269.7754241001094,269.7754241001094,270.66064690006897,v,1,0.8686387999914587,None,640359,001,2024-10-11_12h17.30.967,motor sequence learning,2024.1.5,None,2024-10-11 12h17.43.770469 +0530,
-50,x,,,,,11,2,46,0,270.6782464000862,,270.66217260004487,270.6782464000862,271.6615728000179,271.6615728000179,271.6615728000179,271.6615728000179,271.674958000076,272.6747210000176,272.6747210000176,273.44324100005906,x,1,0.7656443999148905,None,640359,001,2024-10-11_12h17.30.967,motor sequence learning,2024.1.5,None,2024-10-11 12h17.43.770469 +0530,
50,c,,,,,11,3,47,2,273.4604920001002,,273.4447100000689,273.4604920001002,274.4449273000937,274.4449273000937,274.4449273000937,274.4449273000937,274.4575516000623,275.4570460000541,275.4570460000541,276.9750860000495,c,1,1.5054358000634238,None,640359,001,2024-10-11_12h17.30.967,motor sequence learning,2024.1.5,None,2024-10-11 12h17.43.770469 +0530,
