delay,freq,condition,trials.thisRepN,trials.thisTrialN,trials.thisN,trials.thisIndex,thisRow.t,notes,trial.started,polygon.started,polygon_2.started,key_resp.started,polygon.stopped,trial.stopped,key_resp.keys,key_resp.rt,key_resp.duration,beep.started,sound_1.started,sound_1.stopped,beep.stopped,response.started,text.started,textbox.started,button.started,response.stopped,textbox.text,button.numClicks,button.timesOn,button.timesOff,participant,session,date,expName,psychopyVersion,frameRate,expStart,
0.7,1000,exp,0,0,0,8,0.02109309984371066,,0.016484000021591783,0.02109309984371066,1.0027685998938978,1.0027685998938978,1.0358456999529153,2.7584579000249505,space,1.6745654998812824,None,2.7604276000056416,3.4688340665927777,3.778943100012839,3.766200999962166,3.7662337999790907,3.778943100012839,3.778943100012839,3.778943100012839,8.101349599892274,300,1,[4.333335099974647],[4.333341400139034],297724,001,2024-11-14_18h22.24.562,Intentional_binding,2024.1.5,None,2024-11-14 18h22.31.450546 +0530,
0.4,1000,exp,0,1,1,4,8.116816999856383,,8.102473299950361,8.116816999856383,9.116867499891669,9.116867499891669,9.116867499891669,9.501452599884942,space,0.37169649987481534,None,9.501951799960807,9.91659136658224,10.224725399864838,10.216138199903071,10.216165199875832,10.224725399864838,10.224725399864838,10.224725399864838,13.499880299903452,250,1,[3.282232799800113],[3.282238199841231],297724,001,2024-11-14_18h22.24.562,Intentional_binding,2024.1.5,None,2024-11-14 18h22.31.450546 +0530,
0.1,1000,exp,0,2,2,3,13.515327799832448,,13.500446100020781,13.515327799832448,14.514917599968612,14.514917599968612,14.514917599968612,14.782698299968615,space,0.26045659999363124,None,14.783179699908942,14.898059566567342,15.205302899936214,15.196106899995357,15.196148299844936,15.205302899936214,15.205302899936214,15.205302899936214,20.464081299956888,150,1,[5.266297800000757],[5.266303600044921],297724,001,2024-11-14_18h22.24.562,Intentional_binding,2024.1.5,None,2024-11-14 18h22.31.450546 +0530,
0.4,1000,exp,0,3,3,10,20.47944019990973,,20.46465629991144,20.47944019990973,21.479361600009724,21.479361600009724,21.479361600009724,21.597263999981806,space,0.10427089990116656,None,21.59786119987257,22.012754266678044,22.31792219984345,22.306684999959543,22.306716399965808,22.31792219984345,22.31792219984345,22.31792219984345,25.52888030000031,500,1,[3.2206216000486165],[3.22062739985995],297724,001,2024-11-14_18h22.24.562,Intentional_binding,2024.1.5,None,2024-11-14 18h22.31.450546 +0530,
0.7,400,unexp,0,4,4,2,25.544537500012666,,25.52942299982533,25.544537500012666,26.544178599957377,26.544178599957377,26.544178599957377,27.562068099854514,space,1.0143639999441803,None,27.562661099946126,28.276868666584292,28.592052099993452,28.577930999919772,28.578090199967846,28.592052099993452,28.592052099993452,28.592052099993452,32.47667420003563,100,1,[3.8941494999453425],[3.8941550999879837],297724,001,2024-11-14_18h22.24.562,Intentional_binding,2024.1.5,None,2024-11-14 18h22.31.450546 +0530,
0.4,400,unexp,0,5,5,1,32.49191270000301,,32.4772594999522,32.49191270000301,33.49195449985564,33.49195449985564,33.49195449985564,33.759870499838144,space,0.2657156002242118,None,33.76047639991157,34.17487056652705,34.485518499976024,34.476271599996835,34.47630460001528,34.485518499976024,34.485518499976024,34.485518499976024,39.47436819993891,175,1,[4.996501999907196],[4.996508100070059],297724,001,2024-11-14_18h22.24.562,Intentional_binding,2024.1.5,None,2024-11-14 18h22.31.450546 +0530,
0.4,1000,exp,0,6,6,7,39.489621199900284,,39.474913199897856,39.489621199900284,40.489638099912554,40.489638099912554,40.489638099912554,41.13984259986319,space,0.639152699848637,None,41.140141600044444,41.53936296661074,41.84696440002881,41.83605969999917,41.836094100028276,41.84696440002881,41.84696440002881,41.84696440002881,46.07216249988414,450,1,[4.234441099921241],[4.234447099966928],297724,001,2024-11-14_18h22.24.562,Intentional_binding,2024.1.5,None,2024-11-14 18h22.31.450546 +0530,
0.7,1000,exp,0,7,7,5,46.08752389997244,,46.07280209986493,46.08752389997244,47.08703979989514,47.08703979989514,47.08703979989514,48.038421199889854,space,0.9404194999951869,None,48.03898740001023,48.75340106670434,49.05868809996173,49.0501087999437,49.05013250000775,49.05868809996173,49.05868809996173,49.05868809996173,57.218876000028104,200,1,[8.16757780010812],[8.167583900038153],297724,001,2024-11-14_18h22.24.562,Intentional_binding,2024.1.5,None,2024-11-14 18h22.31.450546 +0530,
0.1,400,unexp,0,8,8,0,57.233586199814454,,57.21943419985473,57.233586199814454,58.23341510002501,58.23341510002501,58.23341510002501,58.56800760002807,space,0.33074730006046593,None,58.56899069994688,58.68324416649217,58.984623699914664,58.97615769994445,58.976182400016114,58.984623699914664,58.984623699914664,58.984623699914664,63.465894700028,300,1,[4.488467900082469],[4.488472699886188],297724,001,2024-11-14_18h22.24.562,Intentional_binding,2024.1.5,None,2024-11-14 18h22.31.450546 +0530,
0.1,1000,exp,0,9,9,6,63.48151699989103,,63.46658129990101,63.48151699989103,64.4812854998745,64.4812854998745,64.4812854998745,64.73270419985056,space,0.2472287998534739,None,64.73330509988591,64.84775936656321,65.15624839998782,65.14563969988376,65.14565790002234,65.15624839998782,65.15624839998782,65.15624839998782,71.06361990002915,275,1,[5.916203700006008],[5.916211800184101],297724,001,2024-11-14_18h22.24.562,Intentional_binding,2024.1.5,None,2024-11-14 18h22.31.450546 +0530,
0.1,1000,exp,0,10,10,9,71.07895509991795,,71.06442089984193,71.07895509991795,72.07888969988562,72.07888969988562,72.07888969988562,72.34642759989947,space,0.26141869998537004,None,72.3473107998725,72.46163096657644,72.7656290999148,72.75660560000688,72.75663769990206,72.7656290999148,72.7656290999148,72.7656290999148,77.894258499844,150,1,[5.135999899823219],[5.136005399981514],297724,001,2024-11-14_18h22.24.562,Intentional_binding,2024.1.5,None,2024-11-14 18h22.31.450546 +0530,
0.7,1000,exp,0,11,11,11,77.9100895000156,,77.89480499993078,77.9100895000156,78.90971080004238,78.90971080004238,78.90971080004238,79.61112399981357,space,0.692940799985081,None,79.61167209991254,80.32581566652904,80.63487499998882,80.62598749995232,80.62601799983531,80.63487499998882,80.63487499998882,80.63487499998882,82.82647649990395,400,1,[2.198934900108725],[2.1989399001467973],297724,001,2024-11-14_18h22.24.562,Intentional_binding,2024.1.5,None,2024-11-14 18h22.31.450546 +0530,
0.4,1000,exp,1,0,12,10,82.84154079994187,,82.82716499990784,82.84154079994187,83.84107670001686,83.84107670001686,83.84107670001686,85.90799660002813,space,2.0501427999697626,None,85.9082974998746,86.32419536664771,86.63421999989077,86.62600940000266,86.62603659997694,86.63421999989077,86.63421999989077,86.63421999989077,89.45706919999793,350,1,[2.829644300043583],[2.82964999997057],297724,001,2024-11-14_18h22.24.562,Intentional_binding,2024.1.5,None,2024-11-14 18h22.31.450546 +0530,
0.1,1000,exp,1,1,13,9,89.47248509991914,,89.45760490000248,89.47248509991914,90.4724724998232,90.4724724998232,90.4724724998232,90.72367749991827,space,0.24027550010941923,None,90.72429689997807,90.83888536651308,91.14444249984808,91.13578629982658,91.13581279991195,91.14444249984808,91.14444249984808,91.14444249984808,94.37239749985747,550,1,[3.235187300015241],[3.235195799963549],297724,001,2024-11-14_18h22.24.562,Intentional_binding,2024.1.5,None,2024-11-14 18h22.31.450546 +0530,
0.7,1000,exp,1,2,14,8,94.38726189988665,,94.373106099898,94.38726189988665,95.38710539997555,95.38710539997555,95.38710539997555,95.67248809989542,space,0.28268019994720817,None,95.67302250000648,96.38696076657313,96.69437799998559,96.68620470003225,96.68623350001872,96.69437799998559,96.69437799998559,96.69437799998559,100.48658289993182,200,1,[3.7989988001063466],[3.799004000145942],297724,001,2024-11-14_18h22.24.562,Intentional_binding,2024.1.5,None,2024-11-14 18h22.31.450546 +0530,
0.7,1000,exp,1,3,15,11,100.50225090002641,,100.48711829981767,100.50225090002641,101.50187509995885,101.50187509995885,101.50187509995885,102.01899469993077,space,0.5046498998999596,None,102.01946339989081,102.73451396666157,,103.01939719985239,103.0194274999667,103.03061849996448,103.03061849996448,103.03061849996448,105.35121280001476,375,1,[2.330270699923858],[2.330276200082153],297724,001,2024-11-14_18h22.24.562,Intentional_binding,2024.1.5,None,2024-11-14 18h22.31.450546 +0530,
0.4,1000,exp,1,4,16,7,105.36720649991184,,105.35175739997067,105.36720649991184,106.36679299990647,106.36679299990647,106.36679299990647,106.78493550000712,space,0.41121120005846024,None,106.7854795998428,107.19961716659988,107.50607519992627,107.49668009998277,107.49671919993125,107.50607519992627,107.50607519992627,107.50607519992627,113.5827130000107,500 ,1,[6.084398200036958],[6.084404000081122],297724,001,2024-11-14_18h22.24.562,Intentional_binding,2024.1.5,None,2024-11-14 18h22.31.450546 +0530,
0.4,1000,exp,1,5,17,4,113.59768869983964,,113.5832483000122,113.59768869983964,114.5975142000243,114.5975142000243,114.5975142000243,114.93223889986984,space,0.3256182000041008,None,114.93287250003777,115.3467053666866,115.6551148998551,115.64639759995043,115.64643540000543,115.6551148998551,115.6551148998551,115.6551148998551,119.46363459993154,250,1,[3.81573270005174],[3.815738500095904],297724,001,2024-11-14_18h22.24.562,Intentional_binding,2024.1.5,None,2024-11-14 18h22.31.450546 +0530,
0.1,400,unexp,1,6,18,0,119.47912559984252,,119.46417089994065,119.47912559984252,120.47880329983309,120.47880329983309,120.47880329983309,120.79692279989831,space,0.3038953000213951,None,120.79745729989372,120.91201296664464,121.21591519983485,121.2060344000347,121.20607229997404,121.21591519983485,121.21591519983485,121.21591519983485,127.86055250000209,320,1,[6.652792899869382],[6.652798699913546],297724,001,2024-11-14_18h22.24.562,Intentional_binding,2024.1.5,None,2024-11-14 18h22.31.450546 +0530,
0.1,1000,exp,1,7,19,6,127.8762011998333,,127.86121629993431,127.8762011998333,128.87599599990062,128.87599599990062,128.87599599990062,129.16021350002848,space,0.27709760004654527,None,129.16078589996323,129.27552986663457,129.58576539997011,129.57596399984322,129.57599649997428,129.58576539997011,129.58576539997011,129.58576539997011,132.49274190003052,175,1,[2.9152023000642657],[2.915207700105384],297724,001,2024-11-14_18h22.24.562,Intentional_binding,2024.1.5,None,2024-11-14 18h22.31.450546 +0530,
0.7,1000,exp,1,8,20,5,132.50774849997833,,132.49328749999404,132.50774849997833,133.50761400000192,133.50761400000192,133.50761400000192,135.14218940003775,space,1.6291486998088658,None,135.1427513998933,135.85712106648523,136.1653873999603,136.1560501998756,136.15608869981952,136.1653873999603,136.1653873999603,136.1653873999603,138.17389139998704,425,1,[2.0160899001639336],[2.016095800092444],297724,001,2024-11-14_18h22.24.562,Intentional_binding,2024.1.5,None,2024-11-14 18h22.31.450546 +0530,
0.1,1000,exp,1,9,21,3,138.18915500002913,,138.174475699896,138.18915500002913,139.1892383999657,139.1892383999657,139.1892383999657,139.57359239994548,space,0.3783603999763727,None,139.57414329983294,139.68886756670352,139.99618819984607,139.98571459995583,139.98574839998037,139.99618819984607,139.99618819984607,139.99618819984607,142.05574129987508,300,1,[2.0684731998480856],[2.0684791998937726],297724,001,2024-11-14_18h22.24.562,Intentional_binding,2024.1.5,None,2024-11-14 18h22.31.450546 +0530,
0.7,400,unexp,1,10,22,2,142.07128559984267,,142.0562783998903,142.07128559984267,143.07115349988453,143.07115349988453,143.07115349988453,145.10472679999657,space,2.0165411999914795,None,145.10526539990678,145.8199300666495,146.12532909982838,146.11602289997973,146.11605149996467,146.12532909982838,146.12532909982838,146.12532909982838,149.80299939983524,300,1,[3.6854201999958605],[3.6854278999380767],297724,001,2024-11-14_18h22.24.562,Intentional_binding,2024.1.5,None,2024-11-14 18h22.31.450546 +0530,
0.4,400,unexp,1,11,23,1,149.81873609987088,,149.8037600000389,149.81873609987088,150.81875530001707,150.81875530001707,150.81875530001707,151.65246049989946,space,0.8208531001582742,None,151.65294969989918,152.06774076662649,152.37527669989504,152.36576039995998,152.36579789989628,152.37527669989504,152.37527669989504,152.37527669989504,156.55067999986932,550,1,[4.183224899927154],[4.183231299975887],297724,001,2024-11-14_18h22.24.562,Intentional_binding,2024.1.5,None,2024-11-14 18h22.31.450546 +0530,
0.4,400,unexp,2,0,24,1,156.56623149989173,,156.55137160001323,156.56623149989173,157.5663031998556,157.5663031998556,157.5663031998556,157.8671556999907,space,0.2876015999354422,None,157.8676831999328,158.2824535666189,158.58403679984622,158.57564179995097,158.57567319995724,158.58403679984622,158.58403679984622,158.58403679984622,162.09864209988154,350,1,[3.5216389999259263],[3.521645799977705],297724,001,2024-11-14_18h22.24.562,Intentional_binding,2024.1.5,None,2024-11-14 18h22.31.450546 +0530,
0.7,1000,exp,2,1,25,5,162.1144345998764,,162.099379299907,162.1144345998764,163.11414469988085,163.11414469988085,163.11414469988085,163.81550539983436,space,0.697809400036931,None,163.8160343999043,164.53015256656025,164.8365410999395,164.82563670002855,164.82567739998922,164.8365410999395,164.8365410999395,164.8365410999395,167.74719649995677,475,1,[2.91975130001083],[2.9197571999393404],297724,001,2024-11-14_18h22.24.562,Intentional_binding,2024.1.5,None,2024-11-14 18h22.31.450546 +0530,
0.4,1000,exp,2,2,26,10,167.76247620000504,,167.74773729988374,167.76247620000504,168.76211049989797,168.76211049989797,168.76211049989797,169.06350309983827,space,0.2895444999448955,None,169.06403649994172,169.47879276663687,169.78506859997287,169.77594630001113,169.77599449991249,169.78506859997287,169.78506859997287,169.78506859997287,172.47860859986395,200,1,[2.7009752998128533],[2.7009808998554945],297724,001,2024-11-14_18h22.24.562,Intentional_binding,2024.1.5,None,2024-11-14 18h22.31.450546 +0530,
0.4,1000,exp,2,3,27,4,172.49421709985472,,172.47915149992332,172.49421709985472,173.4937382999342,173.4937382999342,173.4937382999342,174.44479550002143,space,0.9429170000366867,None,174.4452806999907,174.85984476661932,175.1652647999581,175.15601100004278,175.15604060003534,175.1652647999581,175.1652647999581,175.1652647999581,177.07725299987942,175,1,[1.9197774000931531],[1.9197830001357943],297724,001,2024-11-14_18h22.24.562,Intentional_binding,2024.1.5,None,2024-11-14 18h22.31.450546 +0530,
0.7,1000,exp,2,4,28,8,177.09244229993783,,177.0777981998399,177.09244229993783,178.092379800044,178.092379800044,178.092379800044,178.42708850000054,space,0.32631859998218715,None,178.42763699986972,179.1419439665663,179.44570689997636,179.4356787998695,179.43570769997314,179.44570689997636,179.44570689997636,179.44570689997636,182.67517129983753,300 ,1,[3.237738100113347],[3.2377438000403345],297724,001,2024-11-14_18h22.24.562,Intentional_binding,2024.1.5,None,2024-11-14 18h22.31.450546 +0530,
0.1,1000,exp,2,5,29,3,182.69055339996703,,182.6758417999372,182.69055339996703,183.69030799996108,183.69030799996108,183.69030799996108,183.99178040004335,space,0.29753069998696446,None,183.9923056999687,184.10688256664824,184.40828269999474,184.39687109994702,184.39689689991064,184.40828269999474,184.40828269999474,184.40828269999474,188.4898097999394,300,1,[4.091430499916896],[4.091436099959537],297724,001,2024-11-14_18h22.24.562,Intentional_binding,2024.1.5,None,2024-11-14 18h22.31.450546 +0530,
0.1,1000,exp,2,6,30,9,188.50534169981256,,188.4903531000018,188.50534169981256,189.50533009995706,189.50533009995706,189.50533009995706,189.75659319991246,space,0.2471203999593854,None,189.75712780002505,189.8716978666528,190.17516690003686,190.16522059985436,190.16525309998542,190.17516690003686,190.17516690003686,190.17516690003686,192.75559299997985,400,1,[2.5887032002210617],[2.588711300166324],297724,001,2024-11-14_18h22.24.562,Intentional_binding,2024.1.5,None,2024-11-14 18h22.31.450546 +0530,
0.7,1000,exp,2,7,31,11,192.77062109997496,,192.75628390000202,192.77062109997496,193.7705945998896,193.7705945998896,193.7705945998896,194.85492469999008,space,1.082165300147608,None,194.85540029988624,195.5697072665828,195.87421979987994,195.86577979987487,195.86580969998613,195.87421979987994,195.87421979987994,195.87421979987994,201.91854139999487,425,1,[6.051220000023022],[6.051226699957624],297724,001,2024-11-14_18h22.24.562,Intentional_binding,2024.1.5,None,2024-11-14 18h22.31.450546 +0530,
0.1,1000,exp,2,8,32,6,201.93413079995662,,201.91923219989985,201.93413079995662,202.9338336000219,202.9338336000219,202.9338336000219,203.26826279982924,space,0.3179558999836445,None,203.2688010998536,203.38368326664593,203.69399379985407,203.68547819997184,203.68551159999333,203.69399379985407,203.69399379985407,203.69399379985407,206.16741209989414,175,1,[2.4805536000058055],[2.480559199815616],297724,001,2024-11-14_18h22.24.562,Intentional_binding,2024.1.5,None,2024-11-14 18h22.31.450546 +0530,
0.4,1000,exp,2,9,33,7,206.18261229991913,,206.16799139999785,206.18261229991913,207.182542799972,207.182542799972,207.182542799972,207.76700209989212,space,0.5779531998559833,None,207.76750690001063,208.18210666656185,208.48361160000786,208.4755603999365,208.47557739983313,208.48361160000786,208.48361160000786,208.48361160000786,210.31550120003521,300,1,[1.8387636998668313],[1.8387708000373095],297724,001,2024-11-14_18h22.24.562,Intentional_binding,2024.1.5,None,2024-11-14 18h22.31.450546 +0530,
0.7,400,unexp,2,10,34,2,210.33101269998588,,210.3163588999305,210.33101269998588,211.33089550002478,211.33089550002478,211.33089550002478,211.54843669990078,space,0.21646409993991256,None,211.54892219998874,212.26401946653303,212.5647064000368,212.55523689999245,212.55525840003975,212.5647064000368,212.5647064000368,212.5647064000368,216.29715289990418,270,1,[3.74043000000529],[3.7404372000601143],297724,001,2024-11-14_18h22.24.562,Intentional_binding,2024.1.5,None,2024-11-14 18h22.31.450546 +0530,
0.1,400,unexp,2,11,35,0,216.3126189999748,,216.29782079998404,216.3126189999748,217.3121386000421,217.3121386000421,217.3121386000421,217.64805159997195,space,0.33360740006901324,None,217.64878689986654,217.76209966658305,218.06454849988222,218.05540800001472,218.05543989990838,218.06454849988222,218.06454849988222,218.06454849988222,223.3281013998203,350,1,[5.271209899801761],[5.271215499844402],297724,001,2024-11-14_18h22.24.562,Intentional_binding,2024.1.5,None,2024-11-14 18h22.31.450546 +0530,
0.4,1000,exp,3,0,36,10,223.34338629990816,,223.32873499998823,223.34338629990816,224.34347069985233,224.34347069985233,224.34347069985233,224.59430149989203,space,0.2494871998205781,None,224.5947638999205,225.00983516668592,225.3137709000148,225.30541579984128,225.30544379982166,225.3137709000148,225.3137709000148,225.3137709000148,227.29314549989067,290,1,[1.9862915000412613],[1.9862969999667257],297724,001,2024-11-14_18h22.24.562,Intentional_binding,2024.1.5,None,2024-11-14 18h22.31.450546 +0530,
0.1,1000,exp,3,1,37,6,227.30875939992256,,227.29370209993795,227.30875939992256,228.30872670002282,228.30872670002282,228.30872670002282,228.6264249999076,space,0.3114765998907387,None,228.62694310001098,228.7414319664861,229.04462159983814,229.03532699984498,229.0353538999334,229.04462159983814,229.04462159983814,229.04462159983814,231.70824990002438,175,1,[2.6713000000454485],[2.671305400086567],297724,001,2024-11-14_18h22.24.562,Intentional_binding,2024.1.5,None,2024-11-14 18h22.31.450546 +0530,
0.7,1000,exp,3,2,38,11,231.72388279996812,,231.70881469990127,231.72388279996812,232.72353419987485,232.72353419987485,232.72353419987485,233.02480000001378,space,0.2933426999952644,None,233.02537569985725,233.73997506668482,234.04598369984888,234.0355314000044,234.03560970001854,234.04598369984888,234.04598369984888,234.04598369984888,235.7901860999409,150,1,[1.7526021997909993],[1.7526072999462485],297724,001,2024-11-14_18h22.24.562,Intentional_binding,2024.1.5,None,2024-11-14 18h22.31.450546 +0530,
0.7,1000,exp,3,3,39,8,235.80583119997755,,235.79076709994115,235.80583119997755,236.80568759981543,236.80568759981543,236.80568759981543,237.17350919987075,space,0.3632954000495374,None,237.1745674998965,237.88829726662178,238.19613309996203,238.18557019997388,238.1856109998189,238.19613309996203,238.19613309996203,238.19613309996203,241.52169639989734,450,1,[3.3339762000832707],[3.333982100011781],297724,001,2024-11-14_18h22.24.562,Intentional_binding,2024.1.5,None,2024-11-14 18h22.31.450546 +0530,
0.7,400,unexp,3,4,40,2,241.5372440998908,,241.52223849995062,241.5372440998908,242.53690720000304,242.53690720000304,242.53690720000304,244.604426600039,space,2.062326699960977,None,244.60495559987612,245.3193965666617,245.6238167998381,245.61520370002836,245.61523699993268,245.6238167998381,245.6238167998381,245.6238167998381,250.11886129993945,375,1,[4.502168100094423],[4.5021745001431555],297724,001,2024-11-14_18h22.24.562,Intentional_binding,2024.1.5,None,2024-11-14 18h22.31.450546 +0530,
0.4,400,unexp,3,5,41,1,250.13438089983538,,250.119565699948,250.13438089983538,251.13408720004372,251.13408720004372,251.13408720004372,253.9846416998189,space,2.8484620000235736,None,253.98520429991186,254.39961426664766,254.7040956998244,254.69497169996612,254.69500389997847,254.7040956998244,254.7040956998244,254.7040956998244,262.23112139990553,"200
",1,[7.534665900049731],[7.534670599969104],297724,001,2024-11-14_18h22.24.562,Intentional_binding,2024.1.5,None,2024-11-14 18h22.31.450546 +0530,
0.4,1000,exp,3,6,42,7,262.24679939984344,,262.2316678999923,262.24679939984344,263.2465994998347,263.2465994998347,263.2465994998347,263.58112889993936,space,0.3281608000397682,None,263.5816687999759,263.9963502665671,264.30384489987046,264.29527390003204,264.2952989998739,264.30384489987046,264.30384489987046,264.30384489987046,267.6461231999565,300,1,[3.3493936001323164],[3.349398900056258],297724,001,2024-11-14_18h22.24.562,Intentional_binding,2024.1.5,None,2024-11-14 18h22.31.450546 +0530,
0.1,400,unexp,3,7,43,0,267.6612686999142,,267.64668480004184,267.6612686999142,268.6614902999718,268.6614902999718,268.6614902999718,269.09653889993206,space,0.43311830004677176,None,269.09713299991563,269.2109368665299,269.51549290004186,269.5052314000204,269.5052757000085,269.51549290004186,269.51549290004186,269.51549290004186,272.2945905998349,450,1,[2.787597700022161],[2.787603400181979],297724,001,2024-11-14_18h22.24.562,Intentional_binding,2024.1.5,None,2024-11-14 18h22.31.450546 +0530,
0.1,1000,exp,3,8,44,9,272.3101822999306,,272.2951228998136,272.3101822999306,273.30980159994215,273.30980159994215,273.30980159994215,273.8782997999806,space,0.5664352998137474,None,273.87892729998566,273.9928238664909,274.2966318000108,274.2879535998218,274.2879760998767,274.2966318000108,274.2966318000108,274.2966318000108,276.7430725998711,500,1,[2.4538705998566],[2.4538761998992413],297724,001,2024-11-14_18h22.24.562,Intentional_binding,2024.1.5,None,2024-11-14 18h22.31.450546 +0530,
0.7,1000,exp,3,9,45,5,276.75845189997926,,276.7436699999962,276.75845189997926,277.75834189984016,277.75834189984016,277.75834189984016,278.02661079983227,space,0.2549003998283297,None,278.02714929985814,278.7413372665799,279.0453341000248,279.035305300029,279.03534109983593,279.0453341000248,279.0453341000248,279.0453341000248,281.74167150002904,270,1,[2.7045950999017805],[2.7046030000783503],297724,001,2024-11-14_18h22.24.562,Intentional_binding,2024.1.5,None,2024-11-14 18h22.31.450546 +0530,
0.1,1000,exp,3,10,46,3,281.75641030003317,,281.7422223999165,281.75641030003317,282.756664799992,282.756664799992,282.756664799992,283.69103410001844,space,0.9261785000562668,None,283.69156729988754,283.8063085666547,284.114140199963,284.10512649989687,284.1051574999001,284.114140199963,284.114140199963,284.114140199963,288.93861099984497,360,1,[4.831960699986666],[4.831967199919745],297724,001,2024-11-14_18h22.24.562,Intentional_binding,2024.1.5,None,2024-11-14 18h22.31.450546 +0530,
0.4,1000,exp,3,11,47,4,288.9544885000214,,288.9393409998156,288.9544885000214,289.9540144999046,289.9540144999046,289.9540144999046,291.2882323998492,space,1.3289276999421418,None,291.2887593000196,291.7033378666422,292.01443420001306,292.00503949983977,292.00507009983994,292.01443420001306,292.01443420001306,292.01443420001306,293.72049520001747,270,1,[1.7139311998616904],[1.7139367999043316],297724,001,2024-11-14_18h22.24.562,Intentional_binding,2024.1.5,None,2024-11-14 18h22.31.450546 +0530,
0.1,400,unexp,4,0,48,0,293.73632559995167,,293.72156169987284,293.73632559995167,294.7358168999199,294.7358168999199,294.7358168999199,297.2196120999288,space,2.4704543999396265,None,297.2202959000133,297.33503996656896,297.64383279997855,297.6354063998442,297.63543579983525,297.64383279997855,297.64383279997855,297.64383279997855,299.8350841999054,540,1,[2.198261799989268],[2.1982676000334322],297724,001,2024-11-14_18h22.24.562,Intentional_binding,2024.1.5,None,2024-11-14 18h22.31.450546 +0530,
0.1,1000,exp,4,1,49,9,299.8505450999364,,299.8357386998832,299.8505450999364,300.8504800000228,300.8504800000228,300.8504800000228,301.7847674000077,space,0.9179312000051141,None,301.78526009991765,301.8999239665611,302.2046961998567,302.19509789999574,302.1951766000129,302.2046961998567,302.2046961998567,302.2046961998567,304.08374409982935,450,1,[1.887073899852112],[1.8870800998993218],297724,001,2024-11-14_18h22.24.562,Intentional_binding,2024.1.5,None,2024-11-14 18h22.31.450546 +0530,
0.4,1000,exp,4,2,50,4,304.0990714998916,,304.0842841998674,304.0990714998916,305.0992004999425,305.0992004999425,305.0992004999425,307.349523199955,space,2.234134600032121,None,307.3501828999724,307.76427036669725,308.07447450002655,308.0654457998462,308.0654766999651,308.07447450002655,308.07447450002655,308.07447450002655,310.69806289998814,150,1,[2.631079599959776],[2.63108540000394],297724,001,2024-11-14_18h22.24.562,Intentional_binding,2024.1.5,None,2024-11-14 18h22.31.450546 +0530,
0.4,1000,exp,4,3,51,10,310.71352509991266,,310.69864859990776,310.71352509991266,311.713263399899,311.713263399899,311.713263399899,312.6806200998835,space,0.9648629000876099,None,312.6810147999786,313.09627396666133,313.403298499994,313.3947870999109,313.3948411999736,313.403298499994,313.403298499994,313.403298499994,316.14646980003454,140,1,[2.7502113999798894],[2.7502188999205828],297724,001,2024-11-14_18h22.24.562,Intentional_binding,2024.1.5,None,2024-11-14 18h22.31.450546 +0530,
0.1,1000,exp,4,4,52,3,316.16180470003746,,316.1472058999352,316.16180470003746,317.1616119998507,317.1616119998507,317.1616119998507,317.56289129983634,space,0.39605039986781776,None,317.5634315998759,317.67784616660015,317.98474769992754,317.97486179997213,317.9748957999982,317.98474769992754,317.98474769992754,317.98474769992754,321.19438360002823,300,1,[3.2174985001329333],[3.2175043001770973],297724,001,2024-11-14_18h22.24.562,Intentional_binding,2024.1.5,None,2024-11-14 18h22.31.450546 +0530,
0.4,400,unexp,4,5,53,1,321.20996139990166,,321.19493169989437,321.20996139990166,322.2097507000435,322.2097507000435,322.2097507000435,323.0443453998305,space,0.8275258999783546,None,323.04486759984866,323.45911406662003,323.7629576998297,323.75488609983586,323.7549069998786,323.7629576998297,323.7629576998297,323.7629576998297,326.126005299855,215,1,[2.3698872001841664],[2.3698940000031143],297724,001,2024-11-14_18h22.24.562,Intentional_binding,2024.1.5,None,2024-11-14 18h22.31.450546 +0530,
0.7,1000,exp,4,6,54,8,326.14152289996855,,326.12669369997457,326.14152289996855,327.1413724999875,327.1413724999875,327.1413724999875,328.50946430000477,space,1.3662415000144392,None,328.50993940001354,329.22425366664925,329.5345258000307,329.5254329999443,329.52553099999204,329.5345258000307,329.5345258000307,329.5345258000307,331.50756679987535,300,1,[1.9803772000595927],[1.980382600100711],297724,001,2024-11-14_18h22.24.562,Intentional_binding,2024.1.5,None,2024-11-14 18h22.31.450546 +0530,
0.7,1000,exp,4,7,55,11,331.5231788000092,,331.5081092999317,331.5231788000092,332.5229755998589,332.5229755998589,332.5229755998589,333.4239848998841,space,0.8989933000411838,None,333.4245315999724,334.13896016666354,334.44328209990636,334.43487609992735,334.43490689992905,334.44328209990636,334.44328209990636,334.44328209990636,336.32261759997346,425,1,[1.8863672001753002],[1.8863729001022875],297724,001,2024-11-14_18h22.24.562,Intentional_binding,2024.1.5,None,2024-11-14 18h22.31.450546 +0530,
0.7,400,unexp,4,8,56,2,336.3380413998384,,336.3231806999538,336.3380413998384,337.33758549997583,337.33758549997583,337.33758549997583,337.6724982999731,space,0.32424190011806786,None,337.67308879992925,338.3874358665819,338.6934400999453,338.6850187999662,338.6850427000318,338.6934400999453,338.6934400999453,338.6934400999453,342.1206794998143,150,1,[3.4341998000163585],[3.4342064999509603],297724,001,2024-11-14_18h22.24.562,Intentional_binding,2024.1.5,None,2024-11-14 18h22.31.450546 +0530,
0.1,1000,exp,4,9,57,6,342.13599419989623,,342.12153859995306,342.13599419989623,343.1357474999968,343.1357474999968,343.1357474999968,343.48733589984477,space,0.342501699924469,None,343.4878654999193,343.6023349664795,343.9030634998344,343.89476439985447,343.8947911998257,343.9030634998344,343.9030634998344,343.9030634998344,347.3688960999716,250,1,[3.4727143000345677],[3.472719700075686],297724,001,2024-11-14_18h22.24.562,Intentional_binding,2024.1.5,None,2024-11-14 18h22.31.450546 +0530,
0.7,1000,exp,4,10,58,5,347.3842243999243,,347.36943099997006,347.3842243999243,348.38398980000056,348.38398980000056,348.38398980000056,348.71959359990433,space,0.3335951999761164,None,348.720312200021,349.4339374665326,349.7436875998974,349.7347956998274,349.73482559993863,349.7436875998974,349.7436875998974,349.7436875998974,352.267497099936,300,1,[2.5311312000267208],[2.531138899968937],297724,001,2024-11-14_18h22.24.562,Intentional_binding,2024.1.5,None,2024-11-14 18h22.31.450546 +0530,
0.4,1000,exp,4,11,59,7,352.2826141999103,,352.26823129993863,352.2826141999103,353.28236469998956,353.28236469998956,353.28236469998956,353.5672850999981,space,0.27653810009360313,None,353.56787459994666,353.98226716654995,354.28430509986356,354.27496930002235,354.2749971000012,354.28430509986356,354.28430509986356,354.28430509986356,357.7319871999789,170,1,[3.4555101001169533],[3.4555156999267638],297724,001,2024-11-14_18h22.24.562,Intentional_binding,2024.1.5,None,2024-11-14 18h22.31.450546 +0530,
0.7,1000,exp,5,0,60,5,357.74729039985687,,357.7325659999624,357.74729039985687,358.7473581000231,358.7473581000231,358.7473581000231,359.8653465998359,space,1.1151674001011997,None,359.86588569986634,360.580083166544,360.88583449996077,360.874836999923,360.87486690003425,360.88583449996077,360.88583449996077,360.88583449996077,364.2130393998232,200,1,[3.336508800042793],[3.3365148999728262],297724,001,2024-11-14_18h22.24.562,Intentional_binding,2024.1.5,None,2024-11-14 18h22.31.450546 +0530,
0.7,400,unexp,5,1,61,2,364.22864819993265,,364.21367469988763,364.22864819993265,365.2282634000294,365.2282634000294,365.2282634000294,365.5461456000339,space,0.30869849980808794,None,365.5466006998904,366.261299666545,366.5650458999444,366.5561792999506,366.55621249997057,366.5650458999444,366.5650458999444,366.5650458999444,369.26161639997736,450,1,[2.7040087999776006],[2.7040152000263333],297724,001,2024-11-14_18h22.24.562,Intentional_binding,2024.1.5,None,2024-11-14 18h22.31.450546 +0530,
0.1,1000,exp,5,2,62,6,369.2767623998225,,369.2622079998255,369.2767623998225,370.2763183999341,370.2763183999341,370.2763183999341,371.0287937000394,space,0.7501467999536544,None,371.0293816998601,371.14271986653716,371.4529497998301,371.4449748999905,371.4449932000134,371.4529497998301,371.4529497998301,371.4529497998301,376.3089639998507,315,1,[4.862831299891695],[4.862837899941951],297724,001,2024-11-14_18h22.24.562,Intentional_binding,2024.1.5,None,2024-11-14 18h22.31.450546 +0530,
0.1,1000,exp,5,3,63,3,376.3242728000041,,376.309505000012,376.3242728000041,377.32400309992954,377.32400309992954,377.32400309992954,378.92477099993266,space,1.5849890999961644,None,378.92529489984736,379.0400297665658,379.34407819993794,379.3351643998176,379.33519869996235,379.34407819993794,379.34407819993794,379.34407819993794,382.30689889984205,400,1,[2.970283600036055],[2.97028880007565],297724,001,2024-11-14_18h22.24.562,Intentional_binding,2024.1.5,None,2024-11-14 18h22.31.450546 +0530,
0.7,1000,exp,5,4,64,8,382.32210839982145,,382.30744869983755,382.32210839982145,383.3221042000223,383.3221042000223,383.3221042000223,384.6226424998604,space,1.2922960000578314,None,384.62318130000494,385.3379341664879,385.6431831999216,385.6348079999443,385.6348302999977,385.6431831999216,385.6431831999216,385.6431831999216,388.92123089986853,300,1,[3.2851416000630707],[3.2851467998698354],297724,001,2024-11-14_18h22.24.562,Intentional_binding,2024.1.5,None,2024-11-14 18h22.31.450546 +0530,
0.1,400,unexp,5,5,65,0,388.9368276000023,,388.92176799988374,388.9368276000023,389.93653690000065,389.93653690000065,389.93653690000065,390.32119299983606,space,0.37091939989477396,None,390.3217775998637,390.4364897665257,390.7438168998342,390.7347422998864,390.7348050000146,390.7438168998342,390.7438168998342,390.7438168998342,395.7356930000242,250,1,[4.999192100018263],[4.999197900062427],297724,001,2024-11-14_18h22.24.562,Intentional_binding,2024.1.5,None,2024-11-14 18h22.31.450546 +0530,
0.4,1000,exp,5,6,66,10,395.75131159997545,,395.73625630000606,395.75131159997545,396.75090119987726,396.75090119987726,396.75090119987726,397.03552219993435,space,0.2798979999497533,None,397.0360568999313,397.4508077665853,397.7523382999934,397.7442866000347,397.74430529982783,397.7523382999934,397.7523382999934,397.7523382999934,403.63281859993003,100,1,[5.887416200013831],[5.887421800056472],297724,001,2024-11-14_18h22.24.562,Intentional_binding,2024.1.5,None,2024-11-14 18h22.31.450546 +0530,
0.4,400,unexp,5,7,67,1,403.64839799981564,,403.6333710998297,403.64839799981564,404.6482007999439,404.6482007999439,404.6482007999439,405.09946269984357,space,0.4372444001492113,None,405.09998800000176,405.51445736649134,405.82531560002826,405.8148109000176,405.8148607998155,405.82531560002826,405.82531560002826,405.82531560002826,410.0642287998926,175,1,[4.247476400109008],[4.247482000151649],297724,001,2024-11-14_18h22.24.562,Intentional_binding,2024.1.5,None,2024-11-14 18h22.31.450546 +0530,
0.4,1000,exp,5,8,68,7,410.07955230004154,,410.0648023998365,410.07955230004154,411.0793443999719,411.0793443999719,411.0793443999719,411.39719569985755,space,0.31531299999915063,None,411.39773199986666,411.81253436656357,412.1234990998637,412.11473219981417,412.1147558998782,412.1234990998637,412.1234990998637,412.1234990998637,415.2122400000226,250,1,[3.0961809000000358],[3.096186500042677],297724,001,2024-11-14_18h22.24.562,Intentional_binding,2024.1.5,None,2024-11-14 18h22.31.450546 +0530,
0.4,1000,exp,5,9,69,4,415.2280141999945,,415.2127782998141,415.2280141999945,416.22753799986094,416.22753799986094,416.22753799986094,416.57924299989827,space,0.3432869999669492,None,416.5797564999666,416.9939498666829,417.3040403998457,417.2945274999365,417.29456079984084,417.3040403998457,417.3040403998457,417.3040403998457,419.8774894999806,350,1,[2.5812858999706805],[2.581293100025505],297724,001,2024-11-14_18h22.24.562,Intentional_binding,2024.1.5,None,2024-11-14 18h22.31.450546 +0530,
0.1,1000,exp,5,10,70,9,419.89285459998064,,419.87821039999835,419.89285459998064,420.89258139999583,420.89258139999583,420.89258139999583,422.076706700027,space,1.169426300097257,None,422.0771643000189,422.19187766669006,422.4937157998793,422.4844843999017,422.48452179995365,422.4937157998793,422.4937157998793,422.4937157998793,424.8425288000144,300,1,[2.3564893999136984],[2.3564951000735164],297724,001,2024-11-14_18h22.24.562,Intentional_binding,2024.1.5,None,2024-11-14 18h22.31.450546 +0530,
0.7,1000,exp,5,11,71,11,424.8579806999769,,424.843070599949,424.8579806999769,425.85763389989734,425.85763389989734,425.85763389989734,426.4414239998441,space,0.5668583998922259,None,426.4418820999563,427.15694646659927,427.4642188998405,427.45411349995993,427.45414349995553,427.4642188998405,427.4642188998405,427.4642188998405,431.4402004999574,400  ,1,[3.983843599911779],[3.9838489999528974],297724,001,2024-11-14_18h22.24.562,Intentional_binding,2024.1.5,None,2024-11-14 18h22.31.450546 +0530,
0.4,1000,exp,6,0,72,10,431.4553188998252,,431.440746499924,431.4553188998252,432.45548729994334,432.45548729994334,432.45548729994334,432.77310979994945,space,0.30743400007486343,None,432.773665699875,433.18822966661924,433.496556899976,433.4851702998858,433.48520839982666,433.496556899976,433.496556899976,433.496556899976,436.2550825998187,250,1,[2.7678955998271704],[2.7679013998713344],297724,001,2024-11-14_18h22.24.562,Intentional_binding,2024.1.5,None,2024-11-14 18h22.31.450546 +0530,
0.1,400,unexp,6,1,73,0,436.2707230998203,,436.25577229983173,436.2707230998203,437.270336400019,437.270336400019,437.270336400019,437.671269999817,space,0.38443289999850094,None,437.67172220000066,437.7868412666178,438.09553679986857,438.0841808998957,438.08420509984717,438.09553679986857,438.09553679986857,438.09553679986857,440.72027659998275,150,1,[2.634779999963939],[2.634785700123757],297724,001,2024-11-14_18h22.24.562,Intentional_binding,2024.1.5,None,2024-11-14 18h22.31.450546 +0530,
0.4,1000,exp,6,2,74,4,440.7355738999322,,440.72081349999644,440.7355738999322,441.73550809989683,441.73550809989683,441.73550809989683,442.65374019998126,space,0.9162674001418054,None,442.65435289987363,443.06807946652793,443.37291369982995,443.3645597998984,443.3645915000234,443.37291369982995,443.37291369982995,443.37291369982995,444.835576799931,200,1,[1.4696854997891933],[1.4696929999627173],297724,001,2024-11-14_18h22.24.562,Intentional_binding,2024.1.5,None,2024-11-14 18h22.31.450546 +0530,
0.7,1000,exp,6,3,75,11,444.8507637998555,,444.8362250998616,444.8507637998555,445.85073799989186,445.85073799989186,445.85073799989186,446.70168039994314,space,0.8382864000741392,None,446.702219999861,447.41655686666877,447.7262444999069,447.7148796999827,447.7149101998657,447.7262444999069,447.7262444999069,447.7262444999069,450.48352229990996,500 ,1,[2.7669691001065075],[2.7669758000411093],297724,001,2024-11-14_18h22.24.562,Intentional_binding,2024.1.5,None,2024-11-14 18h22.31.450546 +0530,
0.7,400,unexp,6,4,76,2,450.4989312000107,,450.4840963999741,450.4989312000107,451.4987812000327,451.4987812000327,451.4987812000327,452.04967430001125,space,0.5370622999034822,None,452.0502380998805,452.76493906655037,453.0731358998455,453.06453610002063,453.0645596999675,453.0731358998455,453.0731358998455,453.0731358998455,456.5979070998728,650,1,[3.5320315998978913],[3.5320371999405324],297724,001,2024-11-14_18h22.24.562,Intentional_binding,2024.1.5,None,2024-11-14 18h22.31.450546 +0530,
0.1,1000,exp,6,5,77,9,456.6137236999348,,456.5984475999139,456.6137236999348,457.61341689992696,457.61341689992696,457.61341689992696,459.64718479989097,space,2.019475999986753,None,459.6476606000215,459.7623240666619,460.07307529984973,460.06433580000885,460.0643593999557,460.07307529984973,460.07307529984973,460.07307529984973,462.5795264998451,515,1,[2.5138757000677288],[2.513881399994716],297724,001,2024-11-14_18h22.24.562,Intentional_binding,2024.1.5,None,2024-11-14 18h22.31.450546 +0530,
0.1,1000,exp,6,6,78,3,462.5946217998862,,462.5800635998603,462.5946217998862,463.59450430003926,463.59450430003926,463.59450430003926,464.6124213999137,space,1.016020799987018,None,464.61297729983926,464.72777516657175,465.0336154999677,465.0244612998795,465.0244883999694,465.0336154999677,465.0336154999677,465.0336154999677,467.3941466000397,300,1,[2.3682470999192446],[2.3682526000775397],297724,001,2024-11-14_18h22.24.562,Intentional_binding,2024.1.5,None,2024-11-14 18h22.31.450546 +0530,
0.4,400,unexp,6,7,79,1,467.40999409998767,,467.3947129000444,467.40999409998767,468.4097720000427,468.4097720000427,468.4097720000427,468.69358640001155,space,0.2742284000851214,None,468.6940180999227,469.10915356671126,469.4144277998712,469.4045591999311,469.40458810003474,469.4144277998712,469.4144277998712,469.4144277998712,472.4259764999151,250,1,[3.019686199957505],[3.0197238998953253],297724,001,2024-11-14_18h22.24.562,Intentional_binding,2024.1.5,None,2024-11-14 18h22.31.450546 +0530,
0.7,1000,exp,6,8,80,8,472.4412895999849,,472.4265904999338,472.4412895999849,473.44115719990805,473.44115719990805,473.44115719990805,474.39233399997465,space,0.9418082002084702,None,474.39298799983226,475.1072846665668,475.41531119984575,475.40410839999095,475.40413889987394,475.41531119984575,475.41531119984575,475.41531119984575,479.05713670002297,175,1,[3.65155449998565],[3.651560500031337],297724,001,2024-11-14_18h22.24.562,Intentional_binding,2024.1.5,None,2024-11-14 18h22.31.450546 +0530,
0.1,1000,exp,6,9,81,6,479.0726562999189,,479.0576780999545,479.0726562999189,480.0722584000323,480.0722584000323,480.0722584000323,480.17378919990733,space,0.08667870005592704,None,480.17466289992444,480.2888222665681,480.5931204999797,480.58422049996443,480.5842544999905,480.5931204999797,480.5931204999797,480.5931204999797,485.02181539987214,200,1,[4.436022200156003],[4.436033200006932],297724,001,2024-11-14_18h22.24.562,Intentional_binding,2024.1.5,None,2024-11-14 18h22.31.450546 +0530,
0.4,1000,exp,6,10,82,7,485.0372621999122,,485.0224718998652,485.0372621999122,486.0369522999972,486.0369522999972,486.0369522999972,486.3547846998554,space,0.3013855000026524,None,486.3553144999314,486.756086366546,487.0698496999685,487.05680759996176,487.05683789984323,487.0698496999685,487.0698496999685,487.0698496999685,492.1527555999346,475,1,[5.0943269999697804],[5.0943325001280755],297724,001,2024-11-14_18h22.24.562,Intentional_binding,2024.1.5,None,2024-11-14 18h22.31.450546 +0530,
0.7,1000,exp,6,11,83,5,492.1680819999892,,492.1532929998357,492.1680819999892,493.16803659987636,493.16803659987636,493.16803659987636,494.45184699981473,space,1.277494200039655,None,494.45242289989255,495.1672188665873,495.4750398998149,495.4645318000112,495.4645598998759,495.4750398998149,495.4750398998149,495.4750398998149,499.41697279992513,650,1,[3.951094500022009],[3.9511017000768334],297724,001,2024-11-14_18h22.24.562,Intentional_binding,2024.1.5,None,2024-11-14 18h22.31.450546 +0530,
0.7,1000,exp,7,0,84,5,499.4321651000064,,499.41773730004206,499.4321651000064,500.43175609991886,500.43175609991886,500.43175609991886,500.6829770999029,space,0.24420559988357127,None,500.6835196998436,501.3983496665644,501.7027133000083,501.6942065998446,501.6942324000411,501.7027133000083,501.7027133000083,501.7027133000083,505.18132299999706,600,1,[3.485629500122741],[3.4856347001623362],297724,001,2024-11-14_18h22.24.562,Intentional_binding,2024.1.5,None,2024-11-14 18h22.31.450546 +0530,
0.1,1000,exp,7,1,85,9,505.1971381998155,,505.18186809984036,505.1971381998155,506.1970021999441,506.1970021999441,506.1970021999441,506.44829159998335,space,0.24714350001886487,None,506.4488241998479,506.56308626669147,506.87423689989373,506.86494400002994,506.8649710000027,506.87423689989373,506.87423689989373,506.87423689989373,509.76325029996224,250,1,[2.8967438999097794],[2.896750499960035],297724,001,2024-11-14_18h22.24.562,Intentional_binding,2024.1.5,None,2024-11-14 18h22.31.450546 +0530,
0.4,1000,exp,7,2,86,4,509.7784267999232,,509.763793699909,509.7784267999232,510.77854199986905,510.77854199986905,510.77854199986905,511.0955584999174,space,0.307308399816975,None,511.09600929985754,511.51102146652215,,511.7871607998386,511.7871892999392,511.7962778999936,511.7962778999936,511.7962778999936,513.8955152998678,300,1,[2.1067800000309944],[2.1067858000751585],297724,001,2024-11-14_18h22.24.562,Intentional_binding,2024.1.5,None,2024-11-14 18h22.31.450546 +0530,
0.7,1000,exp,7,3,87,8,513.9108205998782,,513.8960581999272,513.9108205998782,514.9103597998619,514.9103597998619,514.9103597998619,515.4949606999289,space,0.56825409992598,None,515.4954695999622,516.2100148664942,516.513884899905,516.5043511998374,516.5043901000172,516.513884899905,516.513884899905,516.513884899905,519.9765263998415,450,1,[3.4705939998384565],[3.4705996999982744],297724,001,2024-11-14_18h22.24.562,Intentional_binding,2024.1.5,None,2024-11-14 18h22.31.450546 +0530,
0.7,400,unexp,7,4,88,2,519.9918551999144,,519.9771122999955,519.9918551999144,520.9917029999197,520.9917029999197,520.9917029999197,522.3752319999039,space,1.3674526000395417,None,522.3755342999939,523.0909214665337,523.3964849000331,523.3840067000128,523.3840403999202,523.3964849000331,523.3964849000331,523.3964849000331,527.4908982999623,540,1,[4.104683100013062],[4.104689700063318],297724,001,2024-11-14_18h22.24.562,Intentional_binding,2024.1.5,None,2024-11-14 18h22.31.450546 +0530,
0.1,1000,exp,7,5,89,6,527.5059134999756,,527.491509999847,527.5059134999756,528.505873200018,528.505873200018,528.505873200018,529.3067452998366,space,0.7904940000735223,None,529.3072928998154,529.4219322666215,529.7347726998851,529.7246337998658,529.7246709000319,529.7347726998851,529.7347726998851,529.7347726998851,532.4387997998856,100,1,[2.7121953000314534],[2.7122009000740945],297724,001,2024-11-14_18h22.24.562,Intentional_binding,2024.1.5,None,2024-11-14 18h22.31.450546 +0530,
0.1,400,unexp,7,6,90,0,532.454294399824,,532.439378199866,532.454294399824,533.4541374999098,533.4541374999098,533.4541374999098,533.8220285999123,space,0.3606416000984609,None,533.8225922000129,533.9370718666507,534.2427459999453,534.2340141998138,534.2340359999798,534.2427459999453,534.2427459999453,534.2427459999453,536.2377841998823,300,1,[2.002472600201145],[2.002480100141838],297724,001,2024-11-14_18h22.24.562,Intentional_binding,2024.1.5,None,2024-11-14 18h22.31.450546 +0530,
0.4,1000,exp,7,7,91,7,536.2528440000024,,536.2385547999293,536.2528440000024,537.2529786999803,537.2529786999803,537.2529786999803,538.1200945999008,space,0.861728599993512,None,538.120669899974,538.5354559666632,538.8447000999004,538.833874899894,538.8339110999368,538.8447000999004,538.8447000999004,538.8447000999004,540.9190248998348,350,1,[2.0834521998185664],[2.0834577998612076],297724,001,2024-11-14_18h22.24.562,Intentional_binding,2024.1.5,None,2024-11-14 18h22.31.450546 +0530,
0.4,400,unexp,7,8,92,1,540.9349775998853,,540.9196194999386,540.9349775998853,541.9347029998899,541.9347029998899,541.9347029998899,542.7187608999666,space,0.774663999909535,None,542.7193287999835,543.1339655665836,543.4425139999948,543.4339321998414,543.4339615998324,543.4425139999948,543.4425139999948,543.4425139999948,545.5175573998131,450,1,[2.082109200069681],[2.082115000113845],297724,001,2024-11-14_18h22.24.562,Intentional_binding,2024.1.5,None,2024-11-14 18h22.31.450546 +0530,
0.7,1000,exp,7,9,93,11,545.5331798999105,,545.5181315999944,545.5331798999105,546.5330713998992,546.5330713998992,546.5330713998992,547.1173300000373,space,0.5738466000184417,None,547.1180705998559,547.8324054666484,548.1438686000183,548.1342851000372,548.1343216998503,548.1438686000183,548.1438686000183,548.1438686000183,551.182417999953,275,1,[3.0465135001577437],[3.046521299984306],297724,001,2024-11-14_18h22.24.562,Intentional_binding,2024.1.5,None,2024-11-14 18h22.31.450546 +0530,
0.4,1000,exp,7,10,94,10,551.197846799856,,551.1833903000224,551.197846799856,552.1976226998959,552.1976226998959,552.1976226998959,552.4496334998403,space,0.2490830000024289,None,552.4501934999134,552.8642422666928,553.1719104999211,553.1636895998381,553.1637140000239,553.1719104999211,553.1719104999211,553.1719104999211,556.7801471999846,500,1,[3.6151717000175267],[3.6151766998227686],297724,001,2024-11-14_18h22.24.562,Intentional_binding,2024.1.5,None,2024-11-14 18h22.31.450546 +0530,
0.1,1000,exp,7,11,95,3,556.7959823999554,,556.780700000003,556.7959823999554,557.7958863999229,557.7958863999229,557.7958863999229,559.4802681000438,space,1.6791282000485808,None,559.4809928999748,559.5951737666658,559.9030224999879,559.8939936999232,559.8940263998229,559.9030224999879,559.9030224999879,559.9030224999879,565.5271711999085,300,1,[5.631865599891171],[5.63187039992772],297724,001,2024-11-14_18h22.24.562,Intentional_binding,2024.1.5,None,2024-11-14 18h22.31.450546 +0530,
0.7,1000,exp,8,0,96,11,565.5429668999277,,565.5277960998937,565.5429668999277,566.5428440000396,566.5428440000396,566.5428440000396,566.9937126999721,space,0.43417389993555844,None,566.9942886999343,567.7089226665596,568.0144899999723,568.0058503998443,568.0058744000271,568.0144899999723,568.0144899999723,568.0144899999723,571.1755647000391,450,1,[3.1683445998933166],[3.1683503999374807],297724,001,2024-11-14_18h22.24.562,Intentional_binding,2024.1.5,None,2024-11-14 18h22.31.450546 +0530,
0.7,1000,exp,8,1,97,5,571.1909060999751,,571.1761125000194,571.1909060999751,572.191673199879,572.191673199879,572.191673199879,572.5084887000266,space,0.30037129996344447,None,572.5090226999018,573.2235620665053,573.5324332998134,573.5239565998781,573.5239845998585,573.5324332998134,573.5324332998134,573.5324332998134,576.4235922000371,250,1,[2.8981331000104547],[2.898140700068325],297724,001,2024-11-14_18h22.24.562,Intentional_binding,2024.1.5,None,2024-11-14 18h22.31.450546 +0530,
0.1,1000,exp,8,2,98,9,576.4390840998385,,576.4243328999728,576.4390840998385,577.439188499935,577.439188499935,577.439188499935,577.5570447999053,space,0.1049210000783205,None,577.5576740000397,577.6718208667046,577.9844286998268,577.9740686998703,577.9740963999648,577.9844286998268,577.9844286998268,577.9844286998268,581.3051911999937,315,1,[3.329602199839428],[3.3296077998820692],297724,001,2024-11-14_18h22.24.562,Intentional_binding,2024.1.5,None,2024-11-14 18h22.31.450546 +0530,
0.1,1000,exp,8,3,99,3,581.3208124998491,,581.3057512999512,581.3208124998491,582.3209029999562,582.3209029999562,582.3209029999562,582.8383903999347,space,0.5029806999955326,None,582.8389061000198,582.9537764664894,583.2628325999249,583.2536094998941,583.2536428999156,583.2628325999249,583.2628325999249,583.2628325999249,585.6540220000315,175,1,[2.398825000040233],[2.398830800084397],297724,001,2024-11-14_18h22.24.562,Intentional_binding,2024.1.5,None,2024-11-14 18h22.31.450546 +0530,
0.1,1000,exp,8,4,100,6,585.6693512999918,,585.6545635999646,585.6693512999918,586.6692824999336,586.6692824999336,586.6692824999336,587.7701616999693,space,1.0908804000355303,None,587.7707028998993,587.8854749666682,588.1926239999011,588.1837239000015,588.1837944998406,588.1926239999011,588.1926239999011,588.1926239999011,591.4185124000069,250,1,[3.233377499971539],[3.233383300015703],297724,001,2024-11-14_18h22.24.562,Intentional_binding,2024.1.5,None,2024-11-14 18h22.31.450546 +0530,
0.4,1000,exp,8,5,101,7,591.4340891998727,,591.4190521000419,591.4340891998727,592.4338674999308,592.4338674999308,592.4338674999308,592.7184569998644,space,0.281330700032413,None,592.7188685999718,593.1336448665863,593.4420653998386,593.4334382000379,593.4334650998935,593.4420653998386,593.4420653998386,593.4420653998386,596.7670419998467,450,1,[3.331969799939543],[3.3319792998954654],297724,001,2024-11-14_18h22.24.562,Intentional_binding,2024.1.5,None,2024-11-14 18h22.31.450546 +0530,
0.4,400,unexp,8,6,102,1,596.7823773999698,,596.7676754998975,596.7823773999698,597.7822115998715,597.7822115998715,597.7822115998715,598.3997388998978,space,0.6017046000342816,None,598.4002052999567,598.8147148665196,599.1241268999875,599.1136507999618,599.1137262999546,599.1241268999875,599.1241268999875,599.1241268999875,603.4644995999988,500,1,[4.349229199811816],[4.34923529997468],297724,001,2024-11-14_18h22.24.562,Intentional_binding,2024.1.5,None,2024-11-14 18h22.31.450546 +0530,
0.1,400,unexp,8,7,103,0,603.4800264998339,,603.465079799993,603.4800264998339,604.479880400002,604.479880400002,604.479880400002,604.9144003998954,space,0.4259813001845032,None,604.914903699886,605.0296278666394,605.3351972999517,605.3236893999856,605.3237266999204,605.3351972999517,605.3351972999517,605.3351972999517,607.996219899971,200,1,[2.6709068999625742],[2.6709125000052154],297724,001,2024-11-14_18h22.24.562,Intentional_binding,2024.1.5,None,2024-11-14 18h22.31.450546 +0530,
0.7,1000,exp,8,8,104,8,608.0118410999421,,607.9967577999923,608.0118410999421,609.0118000998627,609.0118000998627,609.0118000998627,609.4958748999052,space,0.46719030011445284,None,609.4963985998183,610.2110471665549,610.513184200041,610.5039472999051,610.5039770998992,610.513184200041,610.513184200041,610.513184200041,614.4776273998432,315,1,[3.9721331999171525],[3.9721407999750227],297724,001,2024-11-14_18h22.24.562,Intentional_binding,2024.1.5,None,2024-11-14 18h22.31.450546 +0530,
0.4,1000,exp,8,9,105,10,614.492833300028,,614.4783577998169,614.492833300028,615.4926362000406,615.4926362000406,615.4926362000406,615.7935680998489,space,0.29252680018544197,None,615.7941032999661,616.2089185666448,616.5143915999215,616.5034772998188,616.5035154998768,616.5143915999215,616.5143915999215,616.5143915999215,618.3758298999164,400,1,[1.8704727001022547],[1.8704779001418501],297724,001,2024-11-14_18h22.24.562,Intentional_binding,2024.1.5,None,2024-11-14 18h22.31.450546 +0530,
0.4,1000,exp,8,10,106,4,618.3914473999757,,618.3763728998601,618.3914473999757,619.3911182999145,619.3911182999145,619.3911182999145,620.5256383998785,space,1.1257080999203026,None,620.5261925999075,620.9405359666018,621.2431641998701,621.2339003998786,621.2339341000188,621.2431641998701,621.2431641998701,621.2431641998701,623.7241255999543,250,1,[2.488752800039947],[2.4887585998512805],297724,001,2024-11-14_18h22.24.562,Intentional_binding,2024.1.5,None,2024-11-14 18h22.31.450546 +0530,
0.7,400,unexp,8,11,107,2,623.7396789998747,,623.7246635998599,623.7396789998747,624.7394341998734,624.7394341998734,624.7394341998734,626.357043299824,space,1.6072163998614997,None,626.3577203999739,627.0721202665629,627.3826079999562,627.3735749998596,627.3736061998643,627.3826079999562,627.3826079999562,627.3826079999562,630.1053732000291,300,1,[2.730209199944511],[2.730214999988675],297724,001,2024-11-14_18h22.24.562,Intentional_binding,2024.1.5,None,2024-11-14 18h22.31.450546 +0530,
0.1,400,unexp,9,0,108,0,630.1208785998169,,630.1059550999198,630.1208785998169,631.1209183998872,631.1209183998872,631.1209183998872,631.5219662999734,space,0.3942910998594016,None,631.5225054000039,631.6371724666717,631.9444835998584,631.9339548000135,631.934028299991,631.9444835998584,631.9444835998584,631.9444835998584,634.4371050000191,400,1,[2.5011124000884593],[2.5011181000154465],297724,001,2024-11-14_18h22.24.562,Intentional_binding,2024.1.5,None,2024-11-14 18h22.31.450546 +0530,
0.1,1000,exp,9,1,109,6,634.4526889999397,,634.437705299817,634.4526889999397,635.4526587999426,635.4526587999426,635.4526587999426,636.0203254998196,space,0.5630167000927031,None,636.0209039999172,636.1356180667101,636.4451659999322,636.4336400998291,636.4336754998658,636.4451659999322,636.4451659999322,636.4451659999322,642.2507964000106,550,1,[5.815486599924043],[5.815491699846461],297724,001,2024-11-14_18h22.24.562,Intentional_binding,2024.1.5,None,2024-11-14 18h22.31.450546 +0530,
0.7,400,unexp,9,2,110,2,642.2668314999901,,642.2513436998706,642.2668314999901,643.2663984999526,643.2663984999526,643.2663984999526,644.0511534998659,space,0.7828331000637263,None,644.0517694000155,644.7658907666957,645.0735204999801,645.0636097998358,645.063648100011,645.0735204999801,645.0735204999801,645.0735204999801,648.1162506998517,150,1,[3.050794000038877],[3.05080009996891],297724,001,2024-11-14_18h22.24.562,Intentional_binding,2024.1.5,None,2024-11-14 18h22.31.450546 +0530,
0.4,1000,exp,9,3,111,10,648.131414399948,,648.1167947000358,648.131414399948,649.1309164999984,649.1309164999984,649.1309164999984,649.3155849999748,space,0.17461810004897416,None,649.31612209999,649.730969866567,650.0313971999567,650.0233234998304,650.0233421998564,650.0313971999567,650.0313971999567,650.0313971999567,653.4472431999166,200,1,[3.42277569998987],[3.4227812001481652],297724,001,2024-11-14_18h22.24.562,Intentional_binding,2024.1.5,None,2024-11-14 18h22.31.450546 +0530,
0.7,1000,exp,9,4,112,5,653.4627342999447,,653.4478180999868,653.4627342999447,654.4627725998871,654.4627725998871,654.4627725998871,655.3303892000113,space,0.8621224001981318,None,655.3310512998141,656.0451592666252,656.3555058999918,656.3436967998277,656.3437371000182,656.3555058999918,656.3555058999918,656.3555058999918,659.2287679000292,350,1,[2.883361400105059],[2.8833667000290006],297724,001,2024-11-14_18h22.24.562,Intentional_binding,2024.1.5,None,2024-11-14 18h22.31.450546 +0530,
0.4,400,unexp,9,5,113,1,659.2441840998363,,659.2294305998366,659.2441840998363,660.2441163000185,660.2441163000185,660.2441163000185,660.9952714999672,space,0.7450624001212418,None,660.9958232999779,661.410308966708,661.7121661000419,661.7032939998899,661.7033285000362,661.7121661000419,661.7121661000419,661.7121661000419,664.8941670998465,400,1,[3.1893802999984473],[3.1893863000441343],297724,001,2024-11-14_18h22.24.562,Intentional_binding,2024.1.5,None,2024-11-14 18h22.31.450546 +0530,
0.1,1000,exp,9,6,114,3,664.9090485998895,,664.8947499999776,664.9090485998895,665.9088320999872,665.9088320999872,665.9088320999872,666.3265084000304,space,0.4054783000610769,None,666.3270447000396,666.4415341665192,666.7520293998532,666.7433827000204,666.7434149000328,666.7520293998532,666.7520293998532,666.7520293998532,669.7917946998496,275,1,[3.0468854000791907],[3.046890600118786],297724,001,2024-11-14_18h22.24.562,Intentional_binding,2024.1.5,None,2024-11-14 18h22.31.450546 +0530,
0.7,1000,exp,9,7,115,11,669.8072667999659,,669.7924375999719,669.8072667999659,670.8070634999312,670.8070634999312,670.8070634999312,671.4925041999668,space,0.6829272999893874,None,671.4932554999832,672.2068790665983,672.511319299927,672.5031633998733,672.5031859998126,672.511319299927,672.511319299927,672.511319299927,676.4896396999247,600,1,[3.9851892001461238],[3.985195300076157],297724,001,2024-11-14_18h22.24.562,Intentional_binding,2024.1.5,None,2024-11-14 18h22.31.450546 +0530,
0.4,1000,exp,9,8,116,4,676.5050009000115,,676.4901741999201,676.5050009000115,677.5047618998215,677.5047618998215,677.5047618998215,677.8393097999506,space,0.32019959995523095,None,677.8398303999566,678.2545811664934,678.5625522998162,678.5539098998997,678.5539349999744,678.5625522998162,678.5625522998162,678.5625522998162,682.0043789998163,300,1,[3.449058499885723],[3.4490637998096645],297724,001,2024-11-14_18h22.24.562,Intentional_binding,2024.1.5,None,2024-11-14 18h22.31.450546 +0530,
0.1,1000,exp,9,9,117,9,682.0195914998185,,682.0050407999661,682.0195914998185,683.0194645000156,683.0194645000156,683.0194645000156,683.5540191999171,space,0.5242043999023736,None,683.5547422999516,683.6692040665696,683.9721990998369,683.9636933000293,683.963717199862,683.9721990998369,683.9721990998369,683.9721990998369,687.5855365998577,415,1,[3.6204837998375297],[3.620489399880171],297724,001,2024-11-14_18h22.24.562,Intentional_binding,2024.1.5,None,2024-11-14 18h22.31.450546 +0530,
0.7,1000,exp,9,10,118,8,687.6011580999475,,687.5860929999035,687.6011580999475,688.6006879999768,688.6006879999768,688.6006879999768,690.0684197999071,space,1.4659620998427272,None,690.068983499892,690.7834250666822,691.0921059998218,691.0831331999507,691.0831616998184,691.0921059998218,691.0921059998218,691.0921059998218,693.3839398999698,540,1,[2.2991853000130504],[2.2991909999400377],297724,001,2024-11-14_18h22.24.562,Intentional_binding,2024.1.5,None,2024-11-14 18h22.31.450546 +0530,
0.4,1000,exp,9,11,119,7,693.3990623999853,,693.3845518999733,693.3990623999853,694.3989289999008,694.3989289999008,694.3989289999008,694.7003164000344,space,0.2957661000546068,None,694.7008736999705,695.1151809665064,695.4220936000347,695.4131075998303,695.4131401998457,695.4220936000347,695.4220936000347,695.4220936000347,698.2152829999104,450,1,[2.8005070998333395],[2.8005188000388443],297724,001,2024-11-14_18h22.24.562,Intentional_binding,2024.1.5,None,2024-11-14 18h22.31.450546 +0530,
0.4,400,unexp,10,0,120,1,698.2310534999706,,698.2159489998594,698.2310534999706,699.2306309998967,699.2306309998967,699.2306309998967,700.6817813999951,space,1.445287900045514,None,700.6823256998323,701.0967168666577,701.4021000999492,701.3934465998318,701.3934702000115,701.4021000999492,701.4021000999492,701.4021000999492,703.3969564000145,900,1,[2.0021748000290245],[2.0021806999575347],297724,001,2024-11-14_18h22.24.562,Intentional_binding,2024.1.5,None,2024-11-14 18h22.31.450546 +0530,
0.1,1000,exp,10,1,121,6,703.4124545999803,,703.3974966998212,703.4124545999803,704.412226599874,704.412226599874,704.412226599874,705.9796483998653,space,1.5584350998979062,None,705.9801790998317,706.0948920664998,706.4050569999963,706.3933227998205,706.393356199842,706.4050569999963,706.4050569999963,706.4050569999963,717.1755566999782,270,1,[10.780631499830633],[10.780637099873275],297724,001,2024-11-14_18h22.24.562,Intentional_binding,2024.1.5,None,2024-11-14 18h22.31.450546 +0530,
0.7,400,unexp,10,2,122,2,717.1910700998269,,717.1761286999099,717.1910700998269,718.1911382998805,718.1911382998805,718.1911382998805,719.5254953999538,space,1.3291821000166237,None,719.5260786998551,720.2400738665058,720.5425692000426,720.5335895998869,720.5336148999631,720.5425692000426,720.5425692000426,720.5425692000426,722.5405649999157,720,1,[2.005593999987468],[2.005602000048384],297724,001,2024-11-14_18h22.24.562,Intentional_binding,2024.1.5,None,2024-11-14 18h22.31.450546 +0530,
0.4,1000,exp,10,3,123,10,722.5557321999222,,722.5411041998304,722.5557321999222,723.5556508998852,723.5556508998852,723.5556508998852,725.5230366999749,space,1.963785800151527,None,725.5235788000282,725.9379800665813,726.2424645998981,726.233367400011,726.2333950998727,726.2424645998981,726.2424645998981,726.2424645998981,729.6544508999214,360,1,[3.419576399959624],[3.4195832000114024],297724,001,2024-11-14_18h22.24.562,Intentional_binding,2024.1.5,None,2024-11-14 18h22.31.450546 +0530,
0.4,1000,exp,10,4,124,7,729.6702751000412,,729.6552212999668,729.6702751000412,730.6699945,730.6699945,730.6699945,731.2210138998926,space,0.5492267000954598,None,731.2215545999352,731.6362067666525,731.9414063999429,731.9332132998388,731.9332327998709,731.9414063999429,731.9414063999429,731.9414063999429,733.8365269999485,630,1,[1.9021378001198173],[1.9021436001639813],297724,001,2024-11-14_18h22.24.562,Intentional_binding,2024.1.5,None,2024-11-14 18h22.31.450546 +0530,
0.7,1000,exp,10,5,125,8,733.8518955998588,,733.8370628999546,733.8518955998588,734.8515482000075,734.8515482000075,734.8515482000075,735.8526250999421,space,0.9939086998347193,None,735.8532314000186,736.5677253665092,736.8713575999718,736.8632346999366,736.8632554998621,736.8713575999718,736.8713575999718,736.8713575999718,738.751177799888,300,1,[1.886706099845469],[1.8867114998865873],297724,001,2024-11-14_18h22.24.562,Intentional_binding,2024.1.5,None,2024-11-14 18h22.31.450546 +0530,
0.4,1000,exp,10,6,126,4,738.7670374999288,,738.7517166000325,738.7670374999288,739.7669754999224,739.7669754999224,739.7669754999224,741.5175015998539,space,1.7371423998847604,None,741.518063099822,741.9327356666947,742.2418833998963,742.2330117998645,742.2330428999849,742.2418833998963,742.2418833998963,742.2418833998963,744.0994829998817,200,1,[1.8651598000433296],[1.8651661002077162],297724,001,2024-11-14_18h22.24.562,Intentional_binding,2024.1.5,None,2024-11-14 18h22.31.450546 +0530,
0.7,1000,exp,10,7,127,11,744.1153153998312,,744.1002743998542,744.1153153998312,745.1148492000066,745.1148492000066,745.1148492000066,745.8160959000234,space,0.6861680001020432,None,745.8166626000311,746.531202466522,746.8418262000196,746.8330549998209,746.8330866999459,746.8418262000196,746.8418262000196,746.8418262000196,748.998154599918,150,1,[2.1635839000809938],[2.163589800009504],297724,001,2024-11-14_18h22.24.562,Intentional_binding,2024.1.5,None,2024-11-14 18h22.31.450546 +0530,
0.1,1000,exp,10,8,128,9,749.0135409999639,,748.9986968999729,749.0135409999639,750.0135677999351,750.0135677999351,750.0135677999351,750.313886599848,space,0.2897010000888258,None,750.3143974998966,750.4298420665475,750.7324031998869,750.7231942999642,750.7232645999175,750.7324031998869,750.7324031998869,750.7324031998869,752.9297274998389,400,1,[2.204997100168839],[2.205002000089735],297724,001,2024-11-14_18h22.24.562,Intentional_binding,2024.1.5,None,2024-11-14 18h22.31.450546 +0530,
0.1,400,unexp,10,9,129,0,752.9453735998832,,752.9302802998573,752.9453735998832,753.9450645998586,753.9450645998586,753.9450645998586,754.4298224998638,space,0.474930000025779,None,754.4303758000024,754.545211066554,754.8528748999815,754.8434452000074,754.843486599857,754.8528748999815,754.8528748999815,754.8528748999815,759.5943507000338,550,1,[4.749371099984273],[4.749377000145614],297724,001,2024-11-14_18h22.24.562,Intentional_binding,2024.1.5,None,2024-11-14 18h22.31.450546 +0530,
0.7,1000,exp,10,10,130,5,759.6099131999072,,759.5950418999419,759.6099131999072,760.6094559000339,760.6094559000339,760.6094559000339,761.0941446998622,space,0.4681558001320809,None,761.0946859000251,761.8090060665893,762.1120194999967,762.1033809999935,762.1034046998248,762.1120194999967,762.1120194999967,762.1120194999967,764.2429420000408,350,1,[2.1381006001029164],[2.138107300037518],297724,001,2024-11-14_18h22.24.562,Intentional_binding,2024.1.5,None,2024-11-14 18h22.31.450546 +0530,
0.1,1000,exp,10,11,131,3,764.2582695998717,,764.2435524999164,764.2582695998717,765.258074299898,765.258074299898,765.258074299898,765.5427442998625,space,0.2810237999074161,None,765.543373499997,765.6576888666643,765.9616256000008,765.9528814000078,765.9529116998892,765.9616256000008,765.9616256000008,765.9616256000008,767.7753432998434,400,1,[1.820690699853003],[1.8206962998956442],297724,001,2024-11-14_18h22.24.562,Intentional_binding,2024.1.5,None,2024-11-14 18h22.31.450546 +0530,
0.1,1000,exp,11,0,132,3,767.790192199871,,767.7760466998443,767.790192199871,768.790091099916,768.790091099916,768.790091099916,769.3914273998234,space,0.5972200999967754,None,769.391957799904,769.5062849666613,769.8132482999936,769.8028656998649,769.8029060999397,769.8132482999936,769.8132482999936,769.8132482999936,771.7078797998838,150,1,[1.9032143000513315],[1.9032199000939727],297724,001,2024-11-14_18h22.24.562,Intentional_binding,2024.1.5,None,2024-11-14 18h22.31.450546 +0530,
0.4,1000,exp,11,1,133,10,771.7224932999816,,771.7084123999812,771.7224932999816,772.7222267999314,772.7222267999314,772.7222267999314,773.0233871999662,space,0.28813080000691116,None,773.0238804998808,773.4385820665086,773.7418005999643,773.7329988998827,773.7330324000213,773.7418005999643,773.7418005999643,773.7418005999643,777.0380528999958,450,1,[3.3034926999825984],[3.3034978001378477],297724,001,2024-11-14_18h22.24.562,Intentional_binding,2024.1.5,None,2024-11-14 18h22.31.450546 +0530,
0.7,1000,exp,11,2,134,11,777.0541515999939,,777.0385957998224,777.0541515999939,778.0537515999749,778.0537515999749,778.0537515999749,778.3883201000281,space,0.3267870999407023,None,778.3889287000056,779.1030772666602,779.4144135999959,779.403598099947,779.4036279998254,779.4144135999959,779.4144135999959,779.4144135999959,781.7534135000315,200,1,[2.348247399786487],[2.3482527998276055],297724,001,2024-11-14_18h22.24.562,Intentional_binding,2024.1.5,None,2024-11-14 18h22.31.450546 +0530,
0.7,1000,exp,11,3,135,8,781.7689410999883,,781.7539603998885,781.7689410999883,782.768702399917,782.768702399917,782.768702399917,783.0204339998309,space,0.24760559992864728,None,783.021003899863,783.7350891666176,784.0417297999375,784.0330486998428,784.0330829999875,784.0417297999375,784.0417297999375,784.0417297999375,786.834829099942,350,1,[2.800088800024241],[2.8000955001916736],297724,001,2024-11-14_18h22.24.562,Intentional_binding,2024.1.5,None,2024-11-14 18h22.31.450546 +0530,
0.1,400,unexp,11,4,136,0,786.8505567000248,,786.8355924999341,786.8505567000248,787.8504180999007,787.8504180999007,787.8504180999007,788.134747199947,space,0.2808097000233829,None,788.1353036998771,788.2500211666959,788.5535474999342,788.5433324000333,788.5433719998691,788.5535474999342,788.5535474999342,788.5535474999342,790.5505058998242,500,1,[2.0054757001344115],[2.0054818000644445],297724,001,2024-11-14_18h22.24.562,Intentional_binding,2024.1.5,None,2024-11-14 18h22.31.450546 +0530,
0.7,400,unexp,11,5,137,2,790.5661685999949,,790.5510392999277,790.5661685999949,791.566019800026,791.566019800026,791.566019800026,792.3001291998662,space,0.7226463998667896,None,792.3007030999288,793.0153853665727,793.3221493999008,793.3129572998732,793.3129871999845,793.3221493999008,793.3221493999008,793.3221493999008,795.3484938000329,550,1,[2.0341344999615103],[2.0341403000056744],297724,001,2024-11-14_18h22.24.562,Intentional_binding,2024.1.5,None,2024-11-14 18h22.31.450546 +0530,
0.1,1000,exp,11,6,138,6,795.3640948999673,,795.3491614998784,795.3640948999673,796.3638693999965,796.3638693999965,796.3638693999965,796.8312099999748,space,0.45075779990293086,None,796.8317648998927,796.946906566682,797.2532931999303,797.2427689000033,797.2428082998376,797.2532931999303,797.2532931999303,797.2532931999303,799.3142943000421,300,1,[2.0696501000784338],[2.0696563001256436],297724,001,2024-11-14_18h22.24.562,Intentional_binding,2024.1.5,None,2024-11-14 18h22.31.450546 +0530,
0.4,1000,exp,11,7,139,4,799.3294202999678,,799.3149121999741,799.3294202999678,800.3292319998145,800.3292319998145,800.3292319998145,800.6472521999385,space,0.30179639998823404,None,800.6477711999323,801.0624957665025,801.3744349000044,801.363141000038,801.3631811998785,801.3744349000044,801.3744349000044,801.3744349000044,803.079149399884,250,1,[1.7142254000063986],[1.7142303998116404],297724,001,2024-11-14_18h22.24.562,Intentional_binding,2024.1.5,None,2024-11-14 18h22.31.450546 +0530,
0.7,1000,exp,11,8,140,5,803.0949569998775,,803.0796963998582,803.0949569998775,804.0948975000065,804.0948975000065,804.0948975000065,804.3131825998425,space,0.2060964999254793,None,804.3139031999744,805.0278034664846,805.3317030000035,805.3226777999662,805.3227060998324,805.3317030000035,805.3317030000035,805.3317030000035,806.9451388998423,400,1,[1.6209881999529898],[1.6209941999986768],297724,001,2024-11-14_18h22.24.562,Intentional_binding,2024.1.5,None,2024-11-14 18h22.31.450546 +0530,
0.4,400,unexp,11,9,141,1,806.9603579000104,,806.9456773998681,806.9603579000104,807.9600014998578,807.9600014998578,807.9600014998578,808.4286479000002,space,0.4667440000921488,None,808.4291940999683,808.8429748665696,809.1516958998982,809.1428986999672,809.1429234000389,809.1516958998982,809.1516958998982,809.1516958998982,811.7095198000316,450 ,1,[2.5654276001732796],[2.5654329999815673],297724,001,2024-11-14_18h22.24.562,Intentional_binding,2024.1.5,None,2024-11-14 18h22.31.450546 +0530,
0.4,1000,exp,11,10,142,7,811.724975900026,,811.710068800021,811.724975900026,812.7250053999014,812.7250053999014,812.7250053999014,813.1420994999353,space,0.4130145001690835,None,813.142589099938,813.5582925666279,813.8637159999926,813.853286499856,813.8533254000358,813.8637159999926,813.8637159999926,813.8637159999926,817.9576282999478,175,1,[4.102536899968982],[4.102541900007054],297724,001,2024-11-14_18h22.24.562,Intentional_binding,2024.1.5,None,2024-11-14 18h22.31.450546 +0530,
0.1,1000,exp,11,11,143,9,817.973087299848,,817.9582070999313,817.973087299848,818.9728598999791,818.9728598999791,818.9728598999791,819.5240892998409,space,0.5421428999397904,None,819.5246142998803,819.639221366557,819.941310999915,819.9326526999939,819.9326765998267,819.941310999915,819.941310999915,819.941310999915,821.8063113999087,200,1,[1.87223229999654],[1.8722387000452727],297724,001,2024-11-14_18h22.24.562,Intentional_binding,2024.1.5,None,2024-11-14 18h22.31.450546 +0530,
0.1,1000,exp,12,0,144,9,821.8217936998699,,821.8070227999706,821.8217936998699,822.8215756998397,822.8215756998397,822.8215756998397,823.1563715999946,space,0.3267354001291096,None,823.1569059998728,823.2713367664876,823.5823217998259,823.5727990998421,823.572829999961,823.5823217998259,823.5823217998259,823.5823217998259,827.7544449998531,450,1,[4.179942299844697],[4.179949200013652],297724,001,2024-11-14_18h22.24.562,Intentional_binding,2024.1.5,None,2024-11-14 18h22.31.450546 +0530,
0.4,1000,exp,12,1,145,7,827.7697620999534,,827.7557560999412,827.7697620999534,828.7695032998454,828.7695032998454,828.7695032998454,829.337293199962,space,0.5617722000461072,None,829.3378278999589,829.7527743667054,830.0633606000338,830.0526721000206,830.0527110998519,830.0633606000338,830.0633606000338,830.0633606000338,832.1522561998572,300,1,[2.0980414000805467],[2.098046800121665],297724,001,2024-11-14_18h22.24.562,Intentional_binding,2024.1.5,None,2024-11-14 18h22.31.450546 +0530,
0.7,400,unexp,12,2,146,2,832.1683083998505,,832.152804199839,832.1683083998505,833.1679996999446,833.1679996999446,833.1679996999446,833.4193346998654,space,0.24326999997720122,None,833.419892600039,834.1343625665797,834.4415358998813,834.4327004998922,834.4327781000175,834.4415358998813,834.4415358998813,834.4415358998813,841.0499314998742,575,1,[6.615458199987188],[6.615465400042012],297724,001,2024-11-14_18h22.24.562,Intentional_binding,2024.1.5,None,2024-11-14 18h22.31.450546 +0530,
0.4,1000,exp,12,3,147,10,841.0650686998852,,841.0506406999193,841.0650686998852,842.064872100018,842.064872100018,842.064872100018,842.1661145999096,space,0.09043149999342859,None,842.1666371999308,842.5814277665379,842.8914171999786,842.8826506999321,842.8826843998395,842.8914171999786,842.8914171999786,842.8914171999786,845.3818439999595,600,1,[2.4977547000162303],[2.4977603999432176],297724,001,2024-11-14_18h22.24.562,Intentional_binding,2024.1.5,None,2024-11-14 18h22.31.450546 +0530,
0.7,1000,exp,12,4,148,8,845.3971871000249,,845.3823851998895,845.3971871000249,846.3969806998502,846.3969806998502,846.3969806998502,846.7816450998653,space,0.36945190001279116,None,846.782207199838,847.4965950665685,847.8026203999761,847.7940449998714,847.7940739998594,847.8026203999761,847.8026203999761,847.8026203999761,849.8468360998668,450,1,[2.0511914000380784],[2.0511972999665886],297724,001,2024-11-14_18h22.24.562,Intentional_binding,2024.1.5,None,2024-11-14 18h22.31.450546 +0530,
0.7,1000,exp,12,5,149,5,849.862250499893,,849.8474009998608,849.862250499893,850.861989099998,850.861989099998,850.861989099998,851.1801571999677,space,0.31094010011292994,None,851.1806870000437,851.8950665665946,852.2087232999038,852.197134600021,852.1971547999419,852.2087232999038,852.2087232999038,852.2087232999038,855.26177620003,550,1,[3.063143900129944],[3.063150400063023],297724,001,2024-11-14_18h22.24.562,Intentional_binding,2024.1.5,None,2024-11-14 18h22.31.450546 +0530,
0.1,400,unexp,12,6,150,0,855.2770720999688,,855.2624196999241,855.2770720999688,856.2768635000102,856.2768635000102,856.2768635000102,856.5447125998326,space,0.25812159990891814,None,856.545343299862,856.6599916665039,856.9608252998441,856.952403199859,856.9524270000402,856.9608252998441,856.9608252998441,856.9608252998441,861.6428025998175,315,1,[4.689055100083351],[4.689062000019476],297724,001,2024-11-14_18h22.24.562,Intentional_binding,2024.1.5,None,2024-11-14 18h22.31.450546 +0530,
0.4,1000,exp,12,7,151,4,861.658170199953,,861.6437015999109,861.658170199953,862.6578476999421,862.6578476999421,862.6578476999421,863.4425525998231,space,0.7787281000055373,None,863.4430821998976,863.857585166643,864.163244899828,864.1529365999158,864.1529609998688,864.163244899828,864.163244899828,864.163244899828,866.5409545998555,200,1,[2.3866181999910623],[2.3866235001478344],297724,001,2024-11-14_18h22.24.562,Intentional_binding,2024.1.5,None,2024-11-14 18h22.31.450546 +0530,
0.7,1000,exp,12,8,152,11,866.5565414999146,,866.5415268999059,866.5565414999146,867.556164899841,867.556164899841,867.556164899841,867.8413310998585,space,0.2779465999919921,None,867.8419137999881,868.5560264664857,868.8626382998191,868.8525491999462,868.852576599922,868.8626382998191,868.8626382998191,868.8626382998191,871.3729393000249,450,1,[2.518850800115615],[2.5188563000410795],297724,001,2024-11-14_18h22.24.562,Intentional_binding,2024.1.5,None,2024-11-14 18h22.31.450546 +0530,
0.1,1000,exp,12,9,153,3,871.3885196999181,,871.373514899984,871.3885196999181,872.3882834999822,872.3882834999822,872.3882834999822,873.4226488999557,space,1.0218205000273883,None,873.4232340999879,873.5377538665819,873.8420028998516,873.8330419999547,873.8330694998149,873.8420028998516,873.8420028998516,873.8420028998516,875.5214736999478,150,1,[1.6868823000695556],[1.686891600023955],297724,001,2024-11-14_18h22.24.562,Intentional_binding,2024.1.5,None,2024-11-14 18h22.31.450546 +0530,
0.1,1000,exp,12,10,154,6,875.5367531999946,,875.5220121999737,875.5367531999946,876.5367735999171,876.5367735999171,876.5367735999171,877.6878237000201,space,1.1413181000389159,None,877.6883096999954,877.8023914665139,878.1119739999995,878.1025955998339,878.1026285998523,878.1119739999995,878.1119739999995,878.1119739999995,879.9197026998736,300 ,1,[1.8154421001672745],[1.8154488999862224],297724,001,2024-11-14_18h22.24.562,Intentional_binding,2024.1.5,None,2024-11-14 18h22.31.450546 +0530,
0.4,400,unexp,12,11,155,1,879.9354204998817,,879.9204106999096,879.9354204998817,880.9351484999061,880.9351484999061,880.9351484999061,881.4871912000235,space,0.5498523998539895,None,881.4879161999561,881.9013646667047,882.2112088999711,882.2025221998338,882.2025444000028,882.2112088999711,882.2112088999711,882.2112088999711,886.3009480999317,475,1,[4.097171599976718],[4.0971774000208825],297724,001,2024-11-14_18h22.24.562,Intentional_binding,2024.1.5,None,2024-11-14 18h22.31.450546 +0530,
0.4,400,unexp,13,0,156,1,886.3164138998836,,886.301487899851,886.3164138998836,887.316450299928,887.316450299928,887.316450299928,887.6178774998989,space,0.28915020008571446,None,887.6184264998883,888.0327865665934,888.3406954000238,888.3323235998396,888.3323492999189,888.3406954000238,888.3406954000238,888.3406954000238,893.665003699949,250,1,[5.331326199928299],[5.3313331999816],297724,001,2024-11-14_18h22.24.562,Intentional_binding,2024.1.5,None,2024-11-14 18h22.31.450546 +0530,
0.7,1000,exp,13,1,157,8,893.680680999998,,893.6657557999715,893.680680999998,894.6806395999156,894.6806395999156,894.6806395999156,894.9150339998305,space,0.22299950011074543,None,894.9155935999006,895.630121466533,895.9414246999659,895.9326625999529,895.9326951999683,895.9414246999659,895.9414246999659,895.9414246999659,898.2137102000415,300,1,[2.279573200037703],[2.279580899979919],297724,001,2024-11-14_18h22.24.562,Intentional_binding,2024.1.5,None,2024-11-14 18h22.31.450546 +0530,
0.1,1000,exp,13,2,158,3,898.2289811999071,,898.2144024998415,898.2289811999071,899.2290387998801,899.2290387998801,899.2290387998801,899.3634091999847,space,0.12639179988764226,None,899.3639274998568,899.4786274666587,899.7800534998532,899.7720357999206,899.7720586999785,899.7800534998532,899.7800534998532,899.7800534998532,902.1456492999569,450,1,[2.3721904000267386],[2.3721975998487324],297724,001,2024-11-14_18h22.24.562,Intentional_binding,2024.1.5,None,2024-11-14 18h22.31.450546 +0530,
0.4,1000,exp,13,3,159,4,902.1609455998987,,902.1463629999198,902.1609455998987,903.1608598998282,903.1608598998282,903.1608598998282,903.8957298998721,space,0.7221162999048829,None,903.8962804998737,904.3104991666662,904.6230502999388,904.6128020999022,904.6128387998324,904.6230502999388,904.6230502999388,904.6230502999388,906.110842499882,500,1,[1.4962770000565797],[1.4962818000931293],297724,001,2024-11-14_18h22.24.562,Intentional_binding,2024.1.5,None,2024-11-14 18h22.31.450546 +0530,
0.7,1000,exp,13,4,160,11,906.1263581998646,,906.1113868998364,906.1263581998646,907.1261618998833,907.1261618998833,907.1261618998833,907.3775434999261,space,0.2456602999009192,None,907.3780680999625,908.0923985664888,908.4017880999018,908.3926799998153,908.3927194999997,908.4017880999018,908.4017880999018,908.4017880999018,911.2755934998859,170,1,[2.88141220016405],[2.8814173999708146],297724,001,2024-11-14_18h22.24.562,Intentional_binding,2024.1.5,None,2024-11-14 18h22.31.450546 +0530,
0.1,400,unexp,13,5,161,0,911.2911674999632,,911.2761454000138,911.2911674999632,912.2910334998742,912.2910334998742,912.2910334998742,912.8421674999408,space,0.5415342999622226,None,912.8428185000084,912.9570829666375,913.2624749999959,913.252688099863,913.2527211999986,913.2624749999959,913.2624749999959,913.2624749999959,916.7404423998669,810,1,[3.486096099950373],[3.486102299997583],297724,001,2024-11-14_18h22.24.562,Intentional_binding,2024.1.5,None,2024-11-14 18h22.31.450546 +0530,
0.7,1000,exp,13,6,162,5,916.7559799000155,,916.7410776999313,916.7559799000155,917.7559477000032,917.7559477000032,917.7559477000032,918.2402231998276,space,0.4825571000110358,None,918.2407503998838,918.9552269667076,919.2633834998123,919.2527182998601,919.2527578999288,919.2633834998123,919.2633834998123,919.2633834998123,921.5387814999558,700,1,[2.283739499980584],[2.2837463999167085],297724,001,2024-11-14_18h22.24.562,Intentional_binding,2024.1.5,None,2024-11-14 18h22.31.450546 +0530,
0.1,1000,exp,13,7,163,6,921.554827600019,,921.5395269000437,921.554827600019,922.5543994000182,922.5543994000182,922.5543994000182,923.4388104998507,space,0.875331100076437,None,923.4394845999777,923.5537627665947,923.8634907999076,923.8525343998335,923.8525652999524,923.8634907999076,923.8634907999076,923.8634907999076,926.3541849998292,270,1,[2.500050300033763],[2.5000581999775022],297724,001,2024-11-14_18h22.24.562,Intentional_binding,2024.1.5,None,2024-11-14 18h22.31.450546 +0530,
0.7,400,unexp,13,8,164,2,926.369537799852,,926.3548717999365,926.369537799852,927.3691374999471,927.3691374999471,927.3691374999471,927.687007999979,space,0.3142146000172943,None,927.687622099882,928.4021981666485,928.7109929998405,928.702464299975,928.7024979998823,928.7109929998405,928.7109929998405,928.7109929998405,930.3192936999258,300,1,[1.615411899983883],[1.615417500026524],297724,001,2024-11-14_18h22.24.562,Intentional_binding,2024.1.5,None,2024-11-14 18h22.31.450546 +0530,
0.1,1000,exp,13,9,165,9,930.334689799929,,930.3198309999425,930.334689799929,931.3343159998767,931.3343159998767,931.3343159998767,931.6526706998702,space,0.3121739998459816,None,931.653342399979,931.7678882666553,932.0712985999417,932.0624118999112,932.0624532999936,932.0712985999417,932.0712985999417,932.0712985999417,935.1175241998862,450,1,[3.0537511000875384],[3.0537572999019176],297724,001,2024-11-14_18h22.24.562,Intentional_binding,2024.1.5,None,2024-11-14 18h22.31.450546 +0530,
0.4,1000,exp,13,10,166,10,935.1331694000401,,935.1180587999988,935.1331694000401,936.1328759000171,936.1328759000171,936.1328759000171,936.5841167999897,space,0.4431441999040544,None,936.5846470999531,936.9990542666676,937.3016585998703,937.2919409999158,937.2919670999981,937.3016585998703,937.3016585998703,937.3016585998703,939.4996725998353,640,1,[2.206261499784887],[2.2062679999507964],297724,001,2024-11-14_18h22.24.562,Intentional_binding,2024.1.5,None,2024-11-14 18h22.31.450546 +0530,
0.4,1000,exp,13,11,167,7,939.5148191999178,,939.5003614998423,939.5148191999178,940.5149069000036,940.5149069000036,940.5149069000036,940.9992611999623,space,0.47772249998524785,None,940.9997852998786,941.4144925666662,941.7214452999178,941.7124332999811,941.712466099998,941.7214452999178,941.7214452999178,941.7214452999178,943.3312739999965,500,1,[1.617128600133583],[1.617134700063616],297724,001,2024-11-14_18h22.24.562,Intentional_binding,2024.1.5,None,2024-11-14 18h22.31.450546 +0530,
0.7,1000,exp,14,0,168,8,943.3471213998273,,943.3318137999158,943.3471213998273,944.3468602998182,944.3468602998182,944.3468602998182,944.648193199886,space,0.2901037000119686,None,944.6488069999032,945.363216766684,945.6706141999457,945.6620976999402,945.6621260000393,945.6706141999457,945.6706141999457,945.6706141999457,948.2297115998808,250,1,[2.5650144000537694],[2.5650202999822795],297724,001,2024-11-14_18h22.24.562,Intentional_binding,2024.1.5,None,2024-11-14 18h22.31.450546 +0530,
0.1,1000,exp,14,1,169,3,948.2454597000033,,948.2303968998604,948.2454597000033,949.2450580999721,949.2450580999721,949.2450580999721,949.6470055000391,space,0.39891329989768565,None,949.6475188999902,949.7616526666718,950.0712072998285,950.0624790999573,950.0625235999469,950.0712072998285,950.0712072998285,950.0712072998285,952.0951076999772,300,1,[2.031193299917504],[2.031199299963191],297724,001,2024-11-14_18h22.24.562,Intentional_binding,2024.1.5,None,2024-11-14 18h22.31.450546 +0530,
0.4,1000,exp,14,2,170,10,952.1106936999131,,952.0956500999164,952.1106936999131,953.110479200026,953.110479200026,953.110479200026,953.3952499998268,space,0.27599520003423095,None,953.3957716999575,953.8102507666374,954.1213087998331,954.1122232000344,954.1122506000102,954.1213087998331,954.1213087998331,954.1213087998331,957.49334239983,170,1,[3.3794299999717623],[3.3794402999337763],297724,001,2024-11-14_18h22.24.562,Intentional_binding,2024.1.5,None,2024-11-14 18h22.31.450546 +0530,
0.4,1000,exp,14,3,171,7,957.508817399852,,957.493969499832,957.508817399852,958.5086983998772,958.5086983998772,958.5086983998772,959.1097136999015,space,0.5922944000922143,None,959.1102461998817,959.5251542665685,959.8314461000264,959.822362100007,959.8223848999478,959.8314461000264,959.8314461000264,959.8314461000264,963.5243035999592,400,1,[3.7002840999048203],[3.7002918999642134],297724,001,2024-11-14_18h22.24.562,Intentional_binding,2024.1.5,None,2024-11-14 18h22.31.450546 +0530,
0.7,1000,exp,14,4,172,5,963.539841099875,,963.5250381999649,963.539841099875,964.5399086999241,964.5399086999241,964.5399086999241,964.8250911999494,space,0.2825494999997318,None,964.8257377999835,965.5397095666888,965.8409557000268,965.832427999936,965.8324602998327,965.8409557000268,965.8409557000268,965.8409557000268,969.6222200999036,"270
",1,[3.7883989000692964],[3.788403799990192],297724,001,2024-11-14_18h22.24.562,Intentional_binding,2024.1.5,None,2024-11-14 18h22.31.450546 +0530,
0.4,400,unexp,14,5,173,1,969.6378412998747,,969.6227680998854,969.6378412998747,970.6376723998692,970.6376723998692,970.6376723998692,972.338339000009,space,1.6864865000825375,None,972.3388906999025,972.7535754666353,973.0609779998194,973.0519600999542,973.0520265998784,973.0609779998194,973.0609779998194,973.0609779998194,975.8537731999531,"600
",1,[2.8002858001273125],[2.800291599938646],297724,001,2024-11-14_18h22.24.562,Intentional_binding,2024.1.5,None,2024-11-14 18h22.31.450546 +0530,
0.1,1000,exp,14,6,174,6,975.8691191999242,,975.8543140999973,975.8691191999242,976.8688117999118,976.8688117999118,976.8688117999118,977.1867162999697,space,0.30185639997944236,None,977.1872993998695,977.3019025666329,977.6112538999878,977.6019470999017,977.601978099905,977.6112538999878,977.6112538999878,977.6112538999878,980.6351890999358,550,1,[3.0314891000743955],[3.031494300113991],297724,001,2024-11-14_18h22.24.562,Intentional_binding,2024.1.5,None,2024-11-14 18h22.31.450546 +0530,
0.1,400,unexp,14,7,175,0,980.6507999999449,,980.6357269999571,980.6507999999449,981.650810000021,981.650810000021,981.650810000021,981.9349385998212,space,0.27208580006845295,None,981.9354689999018,982.0501883666186,982.3613028998952,982.3522586999461,982.3522890999448,982.3613028998952,982.3613028998952,982.3613028998952,984.9170784999151,450,1,[2.5635603999253362],[2.5635659999679774],297724,001,2024-11-14_18h22.24.562,Intentional_binding,2024.1.5,None,2024-11-14 18h22.31.450546 +0530,
0.1,1000,exp,14,8,176,9,984.9327010000125,,984.9176604000386,984.9327010000125,985.9322677999735,985.9322677999735,985.9322677999735,986.2670912998728,space,0.3189038001000881,None,986.2676881998777,986.3822663666836,986.6927700999659,986.6820982999634,986.6821377000306,986.6927700999659,986.6927700999659,986.6927700999659,988.7326181998942,300,1,[2.048723299987614],[2.048730199923739],297724,001,2024-11-14_18h22.24.562,Intentional_binding,2024.1.5,None,2024-11-14 18h22.31.450546 +0530,
0.4,1000,exp,14,9,177,4,988.7481782999821,,988.7333292998374,988.7481782999821,989.7479192998726,989.7479192998726,989.7479192998726,990.4325069999322,space,0.681861000135541,None,990.4330561000388,990.84731736669,991.1505328000057,991.1418844000436,991.1419118000194,991.1505328000057,991.1505328000057,991.1505328000057,993.7142384999897,340,1,[2.5709520999807864],[2.5709577999077737],297724,001,2024-11-14_18h22.24.562,Intentional_binding,2024.1.5,None,2024-11-14 18h22.31.450546 +0530,
0.7,400,unexp,14,10,178,2,993.7295013999101,,993.7147727999836,993.7295013999101,994.7292462999467,994.7292462999467,994.7292462999467,996.2801528999116,space,1.534969799919054,None,996.280759499874,996.9952757666508,997.3011829999741,997.291885699844,997.2919286999386,997.3011829999741,997.3011829999741,997.3011829999741,1001.2948475999292,250,1,[4.001458599930629],[4.001465199980885],297724,001,2024-11-14_18h22.24.562,Intentional_binding,2024.1.5,None,2024-11-14 18h22.31.450546 +0530,
0.7,1000,exp,14,11,179,11,1001.3105170999188,,1001.2955636000261,1001.3105170999188,1002.3101717999671,1002.3101717999671,1002.3101717999671,1002.7954782999586,space,0.4830145000014454,None,1002.796099399915,1003.5098054665762,1003.8220893000253,1003.8121011999901,1003.8121334000025,1003.8220893000253,1003.8220893000253,1003.8220893000253,1007.0596733998973,350,1,[3.2459543000441045],[3.2459605999756604],297724,001,2024-11-14_18h22.24.562,Intentional_binding,2024.1.5,None,2024-11-14 18h22.31.450546 +0530,
0.1,1000,exp,15,0,180,6,1007.0751514998265,,1007.0603870998602,1007.0751514998265,1008.074818499852,1008.074818499852,1008.074818499852,1008.3262675998267,space,0.24510679999366403,None,1008.3268259998877,1008.4412448665282,1008.7502596999984,1008.741736299824,1008.74177029985,1008.7502596999984,1008.7502596999984,1008.7502596999984,1010.8916284998413,400,1,[2.14824160002172],[2.1482466999441385],297724,001,2024-11-14_18h22.24.562,Intentional_binding,2024.1.5,None,2024-11-14 18h22.31.450546 +0530,
0.1,400,unexp,15,1,181,0,1010.9072016000282,,1010.8925053998828,1010.9072016000282,1011.9070768998936,1011.9070768998936,1011.9070768998936,1011.924980700016,space,0.009850099915638566,None,1011.9255091999657,1012.039934466655,1012.3509972998872,1012.3418774998281,1012.3419063999318,1012.3509972998872,1012.3509972998872,1012.3509972998872,1018.9055910999887,500,1,[6.562110000057146],[6.562120900023729],297724,001,2024-11-14_18h22.24.562,Intentional_binding,2024.1.5,None,2024-11-14 18h22.31.450546 +0530,
0.7,1000,exp,15,2,182,11,1018.9209888000041,,1018.9063020998146,1018.9209888000041,1019.9208328998648,1019.9208328998648,1019.9208328998648,1020.3049452998675,space,0.37332810019142926,None,1020.3053178999107,1021.020313666497,1021.3314541999716,1021.321678099921,1021.3217022998724,1021.3314541999716,1021.3314541999716,1021.3314541999716,1026.0696554000024,400,1,[4.746405999874696],[4.746412799926475],297724,001,2024-11-14_18h22.24.562,Intentional_binding,2024.1.5,None,2024-11-14 18h22.31.450546 +0530,
0.4,1000,exp,15,3,183,10,1026.0853554999921,,1026.0704721999355,1026.0853554999921,1027.085211199941,1027.085211199941,1027.085211199941,1027.5366432999726,space,0.44132310012355447,None,1027.5371753999498,1027.951321766541,1028.2600056999363,1028.2516554000322,1028.2516778998543,1028.2600056999363,1028.2600056999363,1028.2600056999363,1031.3180780999828,375,1,[3.0651662000454962],[3.065172499977052],297724,001,2024-11-14_18h22.24.562,Intentional_binding,2024.1.5,None,2024-11-14 18h22.31.450546 +0530,
0.7,400,unexp,15,4,184,2,1031.333392799832,,1031.31863159989,1031.333392799832,1032.3331853998825,1032.3331853998825,1032.3331853998825,1032.634172399994,space,0.2919821999967098,None,1032.634703999851,1033.3498874665859,1033.6636866999324,1033.652320599882,1033.6523611999582,1033.6636866999324,1033.6636866999324,1033.6636866999324,1039.5651414999738,200,1,[5.911003800109029],[5.911009900039062],297724,001,2024-11-14_18h22.24.562,Intentional_binding,2024.1.5,None,2024-11-14 18h22.31.450546 +0530,
0.4,1000,exp,15,5,185,4,1039.5805977999698,,1039.5657225998584,1039.5805977999698,1040.5806523000356,1040.5806523000356,1040.5806523000356,1041.0482941998634,space,0.45853099995292723,None,1041.0488440999761,1041.4636004665556,1041.7727361998986,1041.7616542000324,1041.761695299996,1041.7727361998986,1041.7727361998986,1041.7727361998986,1051.444305999903,300,1,[9.681040300056338],[9.681047900114208],297724,001,2024-11-14_18h22.24.562,Intentional_binding,2024.1.5,None,2024-11-14 18h22.31.450546 +0530,
0.4,400,unexp,15,6,186,1,1051.4600867000408,,1051.4448497998528,1051.4600867000408,1052.4596769998316,1052.4596769998316,1052.4596769998316,1052.8277485999279,space,0.3586862999945879,None,1052.8282742998563,1053.2430094665071,1053.551307799993,1053.5420003999025,1053.5420369999483,1053.551307799993,1053.551307799993,1053.551307799993,1056.9092387999408,200,1,[3.3657559999264777],[3.365761699853465],297724,001,2024-11-14_18h22.24.562,Intentional_binding,2024.1.5,None,2024-11-14 18h22.31.450546 +0530,
0.1,1000,exp,15,7,187,3,1056.9248076998629,,1056.9097759998403,1056.9248076998629,1057.9247030999977,1057.9247030999977,1057.9247030999977,1058.4586185000371,space,0.5184118999168277,None,1058.4591848000418,1058.5738995664908,1058.8816290998366,1058.8716515998822,1058.871702299919,1058.8816290998366,1058.8816290998366,1058.8816290998366,1062.2074259999208,350,1,[3.3336875999812037],[3.3336934000253677],297724,001,2024-11-14_18h22.24.562,Intentional_binding,2024.1.5,None,2024-11-14 18h22.31.450546 +0530,
0.1,1000,exp,15,8,188,9,1062.2231191999745,,1062.2079757999163,1062.2231191999745,1063.2229402998928,1063.2229402998928,1063.2229402998928,1063.591063000029,space,0.3658473000396043,None,1063.5918074999936,1063.7058224667019,1064.0102661999408,1064.0015836998355,1064.0016063000076,1064.0102661999408,1064.0102661999408,1064.0102661999408,1066.0894476999529,500,1,[2.08654179982841],[2.0865482999943197],297724,001,2024-11-14_18h22.24.562,Intentional_binding,2024.1.5,None,2024-11-14 18h22.31.450546 +0530,
0.7,1000,exp,15,9,189,5,1066.104783399962,,1066.0900967998896,1066.104783399962,1067.1048091999255,1067.1048091999255,1067.1048091999255,1067.1898143000435,space,0.07763769989833236,None,1067.1903650998138,1067.9046011665525,1068.2104485000018,1068.2014976998325,1068.2015343999956,1068.2104485000018,1068.2104485000018,1068.2104485000018,1070.4378188999835,350,1,[2.234822600148618],[2.2348279000725597],297724,001,2024-11-14_18h22.24.562,Intentional_binding,2024.1.5,None,2024-11-14 18h22.31.450546 +0530,
0.7,1000,exp,15,10,190,8,1070.4533682998735,,1070.4383902999107,1070.4533682998735,1071.4529530999716,1071.4529530999716,1071.4529530999716,1071.8039199998602,space,0.33459290000610054,None,1071.8043178999797,1072.5191717665332,1072.8307268000208,1072.82176359999,1072.8217900998425,1072.8307268000208,1072.8307268000208,1072.8307268000208,1076.4021934999619,"500 
",1,[3.5789362001232803],[3.5789419000502676],297724,001,2024-11-14_18h22.24.562,Intentional_binding,2024.1.5,None,2024-11-14 18h22.31.450546 +0530,
0.4,1000,exp,15,11,191,7,1076.4182040998712,,1076.4028855999932,1076.4182040998712,1077.4179650000297,1077.4179650000297,1077.4179650000297,1077.7691160000395,space,0.3430159001145512,None,1077.769677999895,1078.184270066504,1078.4934102999978,1078.4844895999413,1078.4845202998258,1078.4934102999978,1078.4934102999978,1078.4934102999978,1080.7844115998596,300,1,[2.2984092999249697],[2.2984153998550028],297724,001,2024-11-14_18h22.24.562,Intentional_binding,2024.1.5,None,2024-11-14 18h22.31.450546 +0530,
0.7,1000,exp,16,0,192,5,1080.7998917000368,,1080.7849516998976,1080.7998917000368,1081.7995482999831,1081.7995482999831,1081.7995482999831,1082.134413599968,space,0.3230931998696178,None,1082.1349953999743,1082.8493081664822,1083.1636516000144,1083.1517288000323,1083.1517713000067,1083.1636516000144,1083.1636516000144,1083.1636516000144,1085.499358000001,450,1,[2.3454861999489367],[2.3454919001087546],297724,001,2024-11-14_18h22.24.562,Intentional_binding,2024.1.5,None,2024-11-14 18h22.31.450546 +0530,
0.1,400,unexp,16,1,193,0,1085.5149528998882,,1085.4999058998656,1085.5149528998882,1086.5148389998358,1086.5148389998358,1086.5148389998358,1086.9994574999437,space,0.47479899995960295,None,1087.0001362999901,1087.1144582667077,1087.420597499935,1087.4117041998543,1087.4117421000265,1087.420597499935,1087.420597499935,1087.420597499935,1090.1642495999113,540,1,[2.7511018000077456],[2.751107200048864],297724,001,2024-11-14_18h22.24.562,Intentional_binding,2024.1.5,None,2024-11-14 18h22.31.450546 +0530,
0.7,1000,exp,16,2,194,8,1090.180309999967,,1090.164787299931,1090.180309999967,1091.1798864998855,1091.1798864998855,1091.1798864998855,1091.86448749993,space,0.6760357001330703,None,1091.8650415998418,1092.5794383665236,1092.890393299982,1092.8816384999081,1092.8816716000438,1092.890393299982,1092.890393299982,1092.890393299982,1095.0626142998226,270,1,[2.1795634001027793],[2.1795691000297666],297724,001,2024-11-14_18h22.24.562,Intentional_binding,2024.1.5,None,2024-11-14 18h22.31.450546 +0530,
0.4,1000,exp,16,3,195,10,1095.0785158998333,,1095.0631532999687,1095.0785158998333,1096.0781948999502,1096.0781948999502,1096.0781948999502,1096.5792431000154,space,0.4881102000363171,None,1096.5797637000214,1096.9945585665448,1097.3010847000405,1097.2915541999973,1097.2915848998819,1097.3010847000405,1097.3010847000405,1097.3010847000405,1100.3442840999924,720,1,[3.0510510001331568],[3.051058700075373],297724,001,2024-11-14_18h22.24.562,Intentional_binding,2024.1.5,None,2024-11-14 18h22.31.450546 +0530,
0.4,1000,exp,16,4,196,4,1100.3599239999894,,1100.3448993000202,1100.3599239999894,1101.3595583999995,1101.3595583999995,1101.3595583999995,1102.1940363999456,space,0.8203859999775887,None,1102.1945646998938,1102.6089392665929,1102.9196079999674,1102.911546899937,1102.9115698998794,1102.9196079999674,1102.9196079999674,1102.9196079999674,1105.6095082999673,810,1,[2.6966546000912786],[2.6966615000274032],297724,001,2024-11-14_18h22.24.562,Intentional_binding,2024.1.5,None,2024-11-14 18h22.31.450546 +0530,
0.1,1000,exp,16,5,197,6,1105.6248035999015,,1105.6102165000048,1105.6248035999015,1106.6246410999447,1106.6246410999447,1106.6246410999447,1107.242576799821,space,0.6163242000620812,None,1107.2431023998652,1107.3571547666254,1107.6614402998239,1107.6513761999086,1107.6514096998144,1107.6614402998239,1107.6614402998239,1107.6614402998239,1110.4409161999356,630,1,[2.7878750001545995],[2.7878819000907242],297724,001,2024-11-14_18h22.24.562,Intentional_binding,2024.1.5,None,2024-11-14 18h22.31.450546 +0530,
0.4,400,unexp,16,6,198,1,1110.4564215999562,,1110.4416302999016,1110.4564215999562,1111.4559452999383,1111.4559452999383,1111.4559452999383,1112.0562132999767,space,0.5962505000643432,None,1112.056517599849,1112.4557818666256,1112.7620063999202,1112.7514722000342,1112.7514990000054,1112.7620063999202,1112.7620063999202,1112.7620063999202,1115.2725821000058,180,1,[2.5196928000077605],[2.519698000047356],297724,001,2024-11-14_18h22.24.562,Intentional_binding,2024.1.5,None,2024-11-14 18h22.31.450546 +0530,
0.7,1000,exp,16,7,199,11,1115.2879941000137,,1115.2731353999116,1115.2879941000137,1116.2878264000174,1116.2878264000174,1116.2878264000174,1116.3725874999072,space,0.07107609999366105,None,1116.3732345998287,1117.087814366507,1117.3904470000416,1117.3813993998338,1117.3814309998415,1117.3904470000416,1117.3904470000416,1117.3904470000416,1121.9371937999967,360,1,[4.554042599862441],[4.554050599923357],297724,001,2024-11-14_18h22.24.562,Intentional_binding,2024.1.5,None,2024-11-14 18h22.31.450546 +0530,
